{
  "$schema": "http://json-schema.org/draft-07/schema",
  "$id": "http://example.com/example.json",
  "type": "object",
  "title": "The root schema",
  "description": "The root schema comprises the entire JSON document.",
  "default": {},
  "examples": [
      {
          "resourceType": "DiagnosticReport",
          "id": "dr-af102187836f4",
          "meta": {
              "profile": [
                  "http://hl7.org/fhir/uv/genomics-reporting/StructureDefinition/genomics-report"
              ]
          },
          "contained": [
              {
                  "resourceType": "Observation",
                  "id": "rs-cd4ce5bf17ba4",
                  "meta": {
                      "profile": [
                          "http://hl7.org/fhir/uv/genomics-reporting/StructureDefinition/region-studied"
                      ]
                  },
                  "status": "final",
                  "category": [
                      {
                          "coding": [
                              {
                                  "system": "http://terminology.hl7.org/CodeSystem/observation-category",
                                  "code": "laboratory"
                              }
                          ]
                      }
                  ],
                  "code": {
                      "coding": [
                          {
                              "system": "http://loinc.org",
                              "code": "53041-0",
                              "display": "DNA region of interest panel"
                          }
                      ]
                  },
                  "subject": {
                      "reference": "Patient/HG00628"
                  },
                  "component": [
                      {
                          "code": {
                              "coding": [
                                  {
                                      "system": "http://loinc.org",
                                      "code": "92822-6",
                                      "display": "Genomic coord system"
                                  }
                              ]
                          },
                          "valueCodeableConcept": {
                              "coding": [
                                  {
                                      "system": "http://loinc.org",
                                      "code": "LA30102-0",
                                      "display": "1-based character counting"
                                  }
                              ]
                          }
                      },
                      {
                          "code": {
                              "coding": [
                                  {
                                      "system": "http://loinc.org",
                                      "code": "48013-7",
                                      "display": "Genomic reference sequence ID"
                                  }
                              ]
                          },
                          "valueCodeableConcept": {
                              "coding": [
                                  {
                                      "system": "http://www.ncbi.nlm.nih.gov/nuccore",
                                      "code": "NC_000001.10"
                                  }
                              ]
                          }
                      }
                  ]
              },
              {
                  "resourceType": "Observation",
                  "id": "dv-0450547ed8a64",
                  "meta": {
                      "profile": [
                          "http://hl7.org/fhir/uv/genomics-reporting/StructureDefinition/variant"
                      ]
                  },
                  "status": "final",
                  "category": [
                      {
                          "coding": [
                              {
                                  "system": "http://terminology.hl7.org/CodeSystem/observation-category",
                                  "code": "laboratory"
                              }
                          ]
                      }
                  ],
                  "code": {
                      "coding": [
                          {
                              "system": "http://loinc.org",
                              "code": "69548-6",
                              "display": "Genetic variant assessment"
                          }
                      ]
                  },
                  "subject": {
                      "reference": "Patient/HG00628"
                  },
                  "valueCodeableConcept": {
                      "coding": [
                          {
                              "system": "http://loinc.org",
                              "code": "LA9633-4",
                              "display": "present"
                          }
                      ]
                  },
                  "component": [
                      {
                          "code": {
                              "coding": [
                                  {
                                      "system": "http://loinc.org",
                                      "code": "62374-4",
                                      "display": "Human reference sequence assembly version"
                                  }
                              ]
                          },
                          "valueCodeableConcept": {
                              "coding": [
                                  {
                                      "system": "http://loinc.org",
                                      "code": "LA14029-5",
                                      "display": "GRCh37"
                                  }
                              ]
                          }
                      },
                      {
                          "code": {
                              "coding": [
                                  {
                                      "system": "http://loinc.org",
                                      "code": "48013-7",
                                      "display": "Genomic reference sequence ID"
                                  }
                              ]
                          },
                          "valueCodeableConcept": {
                              "coding": [
                                  {
                                      "system": "http://www.ncbi.nlm.nih.gov/nuccore",
                                      "code": "NC_000001.10"
                                  }
                              ]
                          }
                      },
                      {
                          "code": {
                              "coding": [
                                  {
                                      "system": "http://loinc.org",
                                      "code": "53034-5",
                                      "display": "Allelic state"
                                  }
                              ]
                          },
                          "valueCodeableConcept": {
                              "coding": [
                                  {
                                      "system": "http://loinc.org",
                                      "code": "LA6706-1",
                                      "display": "heterozygous"
                                  }
                              ]
                          }
                      },
                      {
                          "code": {
                              "coding": [
                                  {
                                      "system": "http://loinc.org",
                                      "code": "69547-8",
                                      "display": "Genomic Ref allele [ID]"
                                  }
                              ]
                          },
                          "valueString": "."
                      },
                      {
                          "code": {
                              "coding": [
                                  {
                                      "system": "http://loinc.org",
                                      "code": "69551-0",
                                      "display": "Genomic Alt allele [ID]"
                                  }
                              ]
                          },
                          "valueString": "G"
                      },
                      {
                          "code": {
                              "coding": [
                                  {
                                      "system": "http://loinc.org",
                                      "code": "92822-6",
                                      "display": "Genomic coord system"
                                  }
                              ]
                          },
                          "valueCodeableConcept": {
                              "coding": [
                                  {
                                      "system": "http://loinc.org",
                                      "code": "LA30102-0",
                                      "display": "1-based character counting"
                                  }
                              ]
                          }
                      },
                      {
                          "code": {
                              "coding": [
                                  {
                                      "system": "http://hl7.org/fhir/uv/genomics-reporting/CodeSystem/tbd-codes",
                                      "code": "exact-start-end",
                                      "display": "Variant exact start and end"
                                  }
                              ]
                          },
                          "valueRange": {
                              "low": {
                                  "value": 15
                              }
                          }
                      }
                  ]
              },
              {
                  "resourceType": "Observation",
                  "id": "dv-7282443d0bf64",
                  "meta": {
                      "profile": [
                          "http://hl7.org/fhir/uv/genomics-reporting/StructureDefinition/variant"
                      ]
                  },
                  "status": "final",
                  "category": [
                      {
                          "coding": [
                              {
                                  "system": "http://terminology.hl7.org/CodeSystem/observation-category",
                                  "code": "laboratory"
                              }
                          ]
                      }
                  ],
                  "code": {
                      "coding": [
                          {
                              "system": "http://loinc.org",
                              "code": "69548-6",
                              "display": "Genetic variant assessment"
                          }
                      ]
                  },
                  "subject": {
                      "reference": "Patient/HG00628"
                  },
                  "valueCodeableConcept": {
                      "coding": [
                          {
                              "system": "http://loinc.org",
                              "code": "LA9633-4",
                              "display": "present"
                          }
                      ]
                  },
                  "component": [
                      {
                          "code": {
                              "coding": [
                                  {
                                      "system": "http://loinc.org",
                                      "code": "62374-4",
                                      "display": "Human reference sequence assembly version"
                                  }
                              ]
                          },
                          "valueCodeableConcept": {
                              "coding": [
                                  {
                                      "system": "http://loinc.org",
                                      "code": "LA14029-5",
                                      "display": "GRCh37"
                                  }
                              ]
                          }
                      },
                      {
                          "code": {
                              "coding": [
                                  {
                                      "system": "http://loinc.org",
                                      "code": "48013-7",
                                      "display": "Genomic reference sequence ID"
                                  }
                              ]
                          },
                          "valueCodeableConcept": {
                              "coding": [
                                  {
                                      "system": "http://www.ncbi.nlm.nih.gov/nuccore",
                                      "code": "NC_000001.10"
                                  }
                              ]
                          }
                      },
                      {
                          "code": {
                              "coding": [
                                  {
                                      "system": "http://loinc.org",
                                      "code": "53034-5",
                                      "display": "Allelic state"
                                  }
                              ]
                          },
                          "valueCodeableConcept": {
                              "coding": [
                                  {
                                      "system": "http://loinc.org",
                                      "code": "LA6706-1",
                                      "display": "heterozygous"
                                  }
                              ]
                          }
                      },
                      {
                          "code": {
                              "coding": [
                                  {
                                      "system": "http://loinc.org",
                                      "code": "69547-8",
                                      "display": "Genomic Ref allele [ID]"
                                  }
                              ]
                          },
                          "valueString": ""
                      },
                      {
                          "code": {
                              "coding": [
                                  {
                                      "system": "http://loinc.org",
                                      "code": "69551-0",
                                      "display": "Genomic Alt allele [ID]"
                                  }
                              ]
                          },
                          "valueString": "G"
                      },
                      {
                          "code": {
                              "coding": [
                                  {
                                      "system": "http://loinc.org",
                                      "code": "92822-6",
                                      "display": "Genomic coord system"
                                  }
                              ]
                          },
                          "valueCodeableConcept": {
                              "coding": [
                                  {
                                      "system": "http://loinc.org",
                                      "code": "LA30102-0",
                                      "display": "1-based character counting"
                                  }
                              ]
                          }
                      },
                      {
                          "code": {
                              "coding": [
                                  {
                                      "system": "http://hl7.org/fhir/uv/genomics-reporting/CodeSystem/tbd-codes",
                                      "code": "exact-start-end",
                                      "display": "Variant exact start and end"
                                  }
                              ]
                          },
                          "valueRange": {
                              "low": {
                                  "value": 20
                              }
                          }
                      }
                  ]
              },
              {
                  "resourceType": "Observation",
                  "id": "dv-19d74586b0c54",
                  "meta": {
                      "profile": [
                          "http://hl7.org/fhir/uv/genomics-reporting/StructureDefinition/variant"
                      ]
                  },
                  "status": "final",
                  "category": [
                      {
                          "coding": [
                              {
                                  "system": "http://terminology.hl7.org/CodeSystem/observation-category",
                                  "code": "laboratory"
                              }
                          ]
                      }
                  ],
                  "code": {
                      "coding": [
                          {
                              "system": "http://loinc.org",
                              "code": "69548-6",
                              "display": "Genetic variant assessment"
                          }
                      ]
                  },
                  "subject": {
                      "reference": "Patient/HG00628"
                  },
                  "valueCodeableConcept": {
                      "coding": [
                          {
                              "system": "http://loinc.org",
                              "code": "LA9633-4",
                              "display": "present"
                          }
                      ]
                  },
                  "component": [
                      {
                          "code": {
                              "coding": [
                                  {
                                      "system": "http://loinc.org",
                                      "code": "62374-4",
                                      "display": "Human reference sequence assembly version"
                                  }
                              ]
                          },
                          "valueCodeableConcept": {
                              "coding": [
                                  {
                                      "system": "http://loinc.org",
                                      "code": "LA14029-5",
                                      "display": "GRCh37"
                                  }
                              ]
                          }
                      },
                      {
                          "code": {
                              "coding": [
                                  {
                                      "system": "http://loinc.org",
                                      "code": "48013-7",
                                      "display": "Genomic reference sequence ID"
                                  }
                              ]
                          },
                          "valueCodeableConcept": {
                              "coding": [
                                  {
                                      "system": "http://www.ncbi.nlm.nih.gov/nuccore",
                                      "code": "NC_000001.10"
                                  }
                              ]
                          }
                      },
                      {
                          "code": {
                              "coding": [
                                  {
                                      "system": "http://loinc.org",
                                      "code": "53034-5",
                                      "display": "Allelic state"
                                  }
                              ]
                          },
                          "valueCodeableConcept": {
                              "coding": [
                                  {
                                      "system": "http://loinc.org",
                                      "code": "LA6706-1",
                                      "display": "heterozygous"
                                  }
                              ]
                          }
                      },
                      {
                          "code": {
                              "coding": [
                                  {
                                      "system": "http://loinc.org",
                                      "code": "69547-8",
                                      "display": "Genomic Ref allele [ID]"
                                  }
                              ]
                          },
                          "valueString": "A"
                      },
                      {
                          "code": {
                              "coding": [
                                  {
                                      "system": "http://loinc.org",
                                      "code": "69551-0",
                                      "display": "Genomic Alt allele [ID]"
                                  }
                              ]
                          },
                          "valueString": "G"
                      },
                      {
                          "code": {
                              "coding": [
                                  {
                                      "system": "http://loinc.org",
                                      "code": "92822-6",
                                      "display": "Genomic coord system"
                                  }
                              ]
                          },
                          "valueCodeableConcept": {
                              "coding": [
                                  {
                                      "system": "http://loinc.org",
                                      "code": "LA30102-0",
                                      "display": "1-based character counting"
                                  }
                              ]
                          }
                      },
                      {
                          "code": {
                              "coding": [
                                  {
                                      "system": "http://hl7.org/fhir/uv/genomics-reporting/CodeSystem/tbd-codes",
                                      "code": "exact-start-end",
                                      "display": "Variant exact start and end"
                                  }
                              ]
                          },
                          "valueRange": {
                              "low": {
                                  "value": 301
                              }
                          }
                      }
                  ]
              },
              {
                  "resourceType": "Observation",
                  "id": "dv-44cf48bceed44",
                  "meta": {
                      "profile": [
                          "http://hl7.org/fhir/uv/genomics-reporting/StructureDefinition/variant"
                      ]
                  },
                  "status": "final",
                  "category": [
                      {
                          "coding": [
                              {
                                  "system": "http://terminology.hl7.org/CodeSystem/observation-category",
                                  "code": "laboratory"
                              }
                          ]
                      }
                  ],
                  "code": {
                      "coding": [
                          {
                              "system": "http://loinc.org",
                              "code": "69548-6",
                              "display": "Genetic variant assessment"
                          }
                      ]
                  },
                  "subject": {
                      "reference": "Patient/HG00628"
                  },
                  "valueCodeableConcept": {
                      "coding": [
                          {
                              "system": "http://loinc.org",
                              "code": "LA9633-4",
                              "display": "present"
                          }
                      ]
                  },
                  "component": [
                      {
                          "code": {
                              "coding": [
                                  {
                                      "system": "http://loinc.org",
                                      "code": "62374-4",
                                      "display": "Human reference sequence assembly version"
                                  }
                              ]
                          },
                          "valueCodeableConcept": {
                              "coding": [
                                  {
                                      "system": "http://loinc.org",
                                      "code": "LA14029-5",
                                      "display": "GRCh37"
                                  }
                              ]
                          }
                      },
                      {
                          "code": {
                              "coding": [
                                  {
                                      "system": "http://loinc.org",
                                      "code": "48013-7",
                                      "display": "Genomic reference sequence ID"
                                  }
                              ]
                          },
                          "valueCodeableConcept": {
                              "coding": [
                                  {
                                      "system": "http://www.ncbi.nlm.nih.gov/nuccore",
                                      "code": "NC_000001.10"
                                  }
                              ]
                          }
                      },
                      {
                          "code": {
                              "coding": [
                                  {
                                      "system": "http://loinc.org",
                                      "code": "53034-5",
                                      "display": "Allelic state"
                                  }
                              ]
                          },
                          "valueCodeableConcept": {
                              "coding": [
                                  {
                                      "system": "http://loinc.org",
                                      "code": "LA6705-3",
                                      "display": "homozygous"
                                  }
                              ]
                          }
                      },
                      {
                          "code": {
                              "coding": [
                                  {
                                      "system": "http://loinc.org",
                                      "code": "69547-8",
                                      "display": "Genomic Ref allele [ID]"
                                  }
                              ]
                          },
                          "valueString": "A"
                      },
                      {
                          "code": {
                              "coding": [
                                  {
                                      "system": "http://loinc.org",
                                      "code": "69551-0",
                                      "display": "Genomic Alt allele [ID]"
                                  }
                              ]
                          },
                          "valueString": "G"
                      },
                      {
                          "code": {
                              "coding": [
                                  {
                                      "system": "http://loinc.org",
                                      "code": "92822-6",
                                      "display": "Genomic coord system"
                                  }
                              ]
                          },
                          "valueCodeableConcept": {
                              "coding": [
                                  {
                                      "system": "http://loinc.org",
                                      "code": "LA30102-0",
                                      "display": "1-based character counting"
                                  }
                              ]
                          }
                      },
                      {
                          "code": {
                              "coding": [
                                  {
                                      "system": "http://hl7.org/fhir/uv/genomics-reporting/CodeSystem/tbd-codes",
                                      "code": "exact-start-end",
                                      "display": "Variant exact start and end"
                                  }
                              ]
                          },
                          "valueRange": {
                              "low": {
                                  "value": 400
                              }
                          }
                      }
                  ]
              },
              {
                  "resourceType": "Observation",
                  "id": "dv-0b2eaeca3e5e4",
                  "meta": {
                      "profile": [
                          "http://hl7.org/fhir/uv/genomics-reporting/StructureDefinition/variant"
                      ]
                  },
                  "status": "final",
                  "category": [
                      {
                          "coding": [
                              {
                                  "system": "http://terminology.hl7.org/CodeSystem/observation-category",
                                  "code": "laboratory"
                              }
                          ]
                      }
                  ],
                  "code": {
                      "coding": [
                          {
                              "system": "http://loinc.org",
                              "code": "69548-6",
                              "display": "Genetic variant assessment"
                          }
                      ]
                  },
                  "subject": {
                      "reference": "Patient/HG00628"
                  },
                  "valueCodeableConcept": {
                      "coding": [
                          {
                              "system": "http://loinc.org",
                              "code": "LA9633-4",
                              "display": "present"
                          }
                      ]
                  },
                  "component": [
                      {
                          "code": {
                              "coding": [
                                  {
                                      "system": "http://loinc.org",
                                      "code": "62374-4",
                                      "display": "Human reference sequence assembly version"
                                  }
                              ]
                          },
                          "valueCodeableConcept": {
                              "coding": [
                                  {
                                      "system": "http://loinc.org",
                                      "code": "LA14029-5",
                                      "display": "GRCh37"
                                  }
                              ]
                          }
                      },
                      {
                          "code": {
                              "coding": [
                                  {
                                      "system": "http://loinc.org",
                                      "code": "48013-7",
                                      "display": "Genomic reference sequence ID"
                                  }
                              ]
                          },
                          "valueCodeableConcept": {
                              "coding": [
                                  {
                                      "system": "http://www.ncbi.nlm.nih.gov/nuccore",
                                      "code": "NC_000001.10"
                                  }
                              ]
                          }
                      },
                      {
                          "code": {
                              "coding": [
                                  {
                                      "system": "http://loinc.org",
                                      "code": "53034-5",
                                      "display": "Allelic state"
                                  }
                              ]
                          },
                          "valueCodeableConcept": {
                              "coding": [
                                  {
                                      "system": "http://loinc.org",
                                      "code": "LA6706-1",
                                      "display": "heterozygous"
                                  }
                              ]
                          }
                      },
                      {
                          "code": {
                              "coding": [
                                  {
                                      "system": "http://loinc.org",
                                      "code": "69547-8",
                                      "display": "Genomic Ref allele [ID]"
                                  }
                              ]
                          },
                          "valueString": "A"
                      },
                      {
                          "code": {
                              "coding": [
                                  {
                                      "system": "http://loinc.org",
                                      "code": "69551-0",
                                      "display": "Genomic Alt allele [ID]"
                                  }
                              ]
                          },
                          "valueString": "G"
                      },
                      {
                          "code": {
                              "coding": [
                                  {
                                      "system": "http://loinc.org",
                                      "code": "92822-6",
                                      "display": "Genomic coord system"
                                  }
                              ]
                          },
                          "valueCodeableConcept": {
                              "coding": [
                                  {
                                      "system": "http://loinc.org",
                                      "code": "LA30102-0",
                                      "display": "1-based character counting"
                                  }
                              ]
                          }
                      },
                      {
                          "code": {
                              "coding": [
                                  {
                                      "system": "http://hl7.org/fhir/uv/genomics-reporting/CodeSystem/tbd-codes",
                                      "code": "exact-start-end",
                                      "display": "Variant exact start and end"
                                  }
                              ]
                          },
                          "valueRange": {
                              "low": {
                                  "value": 500
                              }
                          }
                      }
                  ]
              },
              {
                  "resourceType": "Observation",
                  "id": "dv-042596d5b11b4",
                  "meta": {
                      "profile": [
                          "http://hl7.org/fhir/uv/genomics-reporting/StructureDefinition/variant"
                      ]
                  },
                  "status": "final",
                  "category": [
                      {
                          "coding": [
                              {
                                  "system": "http://terminology.hl7.org/CodeSystem/observation-category",
                                  "code": "laboratory"
                              }
                          ]
                      }
                  ],
                  "code": {
                      "coding": [
                          {
                              "system": "http://loinc.org",
                              "code": "69548-6",
                              "display": "Genetic variant assessment"
                          }
                      ]
                  },
                  "subject": {
                      "reference": "Patient/HG00628"
                  },
                  "valueCodeableConcept": {
                      "coding": [
                          {
                              "system": "http://loinc.org",
                              "code": "LA9633-4",
                              "display": "present"
                          }
                      ]
                  },
                  "component": [
                      {
                          "code": {
                              "coding": [
                                  {
                                      "system": "http://loinc.org",
                                      "code": "62374-4",
                                      "display": "Human reference sequence assembly version"
                                  }
                              ]
                          },
                          "valueCodeableConcept": {
                              "coding": [
                                  {
                                      "system": "http://loinc.org",
                                      "code": "LA14029-5",
                                      "display": "GRCh37"
                                  }
                              ]
                          }
                      },
                      {
                          "code": {
                              "coding": [
                                  {
                                      "system": "http://loinc.org",
                                      "code": "48013-7",
                                      "display": "Genomic reference sequence ID"
                                  }
                              ]
                          },
                          "valueCodeableConcept": {
                              "coding": [
                                  {
                                      "system": "http://www.ncbi.nlm.nih.gov/nuccore",
                                      "code": "NC_000001.10"
                                  }
                              ]
                          }
                      },
                      {
                          "code": {
                              "coding": [
                                  {
                                      "system": "http://loinc.org",
                                      "code": "53034-5",
                                      "display": "Allelic state"
                                  }
                              ]
                          },
                          "valueCodeableConcept": {
                              "coding": [
                                  {
                                      "system": "http://loinc.org",
                                      "code": "LA6706-1",
                                      "display": "heterozygous"
                                  }
                              ]
                          }
                      },
                      {
                          "code": {
                              "coding": [
                                  {
                                      "system": "http://loinc.org",
                                      "code": "69547-8",
                                      "display": "Genomic Ref allele [ID]"
                                  }
                              ]
                          },
                          "valueString": "A"
                      },
                      {
                          "code": {
                              "coding": [
                                  {
                                      "system": "http://loinc.org",
                                      "code": "69551-0",
                                      "display": "Genomic Alt allele [ID]"
                                  }
                              ]
                          },
                          "valueString": "G"
                      },
                      {
                          "code": {
                              "coding": [
                                  {
                                      "system": "http://loinc.org",
                                      "code": "92822-6",
                                      "display": "Genomic coord system"
                                  }
                              ]
                          },
                          "valueCodeableConcept": {
                              "coding": [
                                  {
                                      "system": "http://loinc.org",
                                      "code": "LA30102-0",
                                      "display": "1-based character counting"
                                  }
                              ]
                          }
                      },
                      {
                          "code": {
                              "coding": [
                                  {
                                      "system": "http://hl7.org/fhir/uv/genomics-reporting/CodeSystem/tbd-codes",
                                      "code": "exact-start-end",
                                      "display": "Variant exact start and end"
                                  }
                              ]
                          },
                          "valueRange": {
                              "low": {
                                  "value": 600
                              }
                          }
                      }
                  ]
              },
              {
                  "resourceType": "Observation",
                  "id": "dv-17f520e0ed384",
                  "meta": {
                      "profile": [
                          "http://hl7.org/fhir/uv/genomics-reporting/StructureDefinition/variant"
                      ]
                  },
                  "status": "final",
                  "category": [
                      {
                          "coding": [
                              {
                                  "system": "http://terminology.hl7.org/CodeSystem/observation-category",
                                  "code": "laboratory"
                              }
                          ]
                      }
                  ],
                  "code": {
                      "coding": [
                          {
                              "system": "http://loinc.org",
                              "code": "69548-6",
                              "display": "Genetic variant assessment"
                          }
                      ]
                  },
                  "subject": {
                      "reference": "Patient/HG00628"
                  },
                  "valueCodeableConcept": {
                      "coding": [
                          {
                              "system": "http://loinc.org",
                              "code": "LA9633-4",
                              "display": "present"
                          }
                      ]
                  },
                  "component": [
                      {
                          "code": {
                              "coding": [
                                  {
                                      "system": "http://loinc.org",
                                      "code": "62374-4",
                                      "display": "Human reference sequence assembly version"
                                  }
                              ]
                          },
                          "valueCodeableConcept": {
                              "coding": [
                                  {
                                      "system": "http://loinc.org",
                                      "code": "LA14029-5",
                                      "display": "GRCh37"
                                  }
                              ]
                          }
                      },
                      {
                          "code": {
                              "coding": [
                                  {
                                      "system": "http://loinc.org",
                                      "code": "48013-7",
                                      "display": "Genomic reference sequence ID"
                                  }
                              ]
                          },
                          "valueCodeableConcept": {
                              "coding": [
                                  {
                                      "system": "http://www.ncbi.nlm.nih.gov/nuccore",
                                      "code": "NC_000001.10"
                                  }
                              ]
                          }
                      },
                      {
                          "code": {
                              "coding": [
                                  {
                                      "system": "http://loinc.org",
                                      "code": "53034-5",
                                      "display": "Allelic state"
                                  }
                              ]
                          },
                          "valueCodeableConcept": {
                              "coding": [
                                  {
                                      "system": "http://loinc.org",
                                      "code": "LA6706-1",
                                      "display": "heterozygous"
                                  }
                              ]
                          }
                      },
                      {
                          "code": {
                              "coding": [
                                  {
                                      "system": "http://loinc.org",
                                      "code": "69547-8",
                                      "display": "Genomic Ref allele [ID]"
                                  }
                              ]
                          },
                          "valueString": "A"
                      },
                      {
                          "code": {
                              "coding": [
                                  {
                                      "system": "http://loinc.org",
                                      "code": "69551-0",
                                      "display": "Genomic Alt allele [ID]"
                                  }
                              ]
                          },
                          "valueString": "G"
                      },
                      {
                          "code": {
                              "coding": [
                                  {
                                      "system": "http://loinc.org",
                                      "code": "92822-6",
                                      "display": "Genomic coord system"
                                  }
                              ]
                          },
                          "valueCodeableConcept": {
                              "coding": [
                                  {
                                      "system": "http://loinc.org",
                                      "code": "LA30102-0",
                                      "display": "1-based character counting"
                                  }
                              ]
                          }
                      },
                      {
                          "code": {
                              "coding": [
                                  {
                                      "system": "http://hl7.org/fhir/uv/genomics-reporting/CodeSystem/tbd-codes",
                                      "code": "exact-start-end",
                                      "display": "Variant exact start and end"
                                  }
                              ]
                          },
                          "valueRange": {
                              "low": {
                                  "value": 700
                              }
                          }
                      }
                  ]
              },
              {
                  "resourceType": "Observation",
                  "id": "sid-d8fb891258544",
                  "meta": {
                      "profile": [
                          "http://hl7.org/fhir/uv/genomics-reporting/StructureDefinition/sequence-phase-relationship"
                      ]
                  },
                  "status": "final",
                  "category": [
                      {
                          "coding": [
                              {
                                  "system": "http://terminology.hl7.org/CodeSystem/observation-category",
                                  "code": "laboratory"
                              }
                          ]
                      }
                  ],
                  "code": {
                      "coding": [
                          {
                              "system": "http://loinc.org",
                              "code": "82120-7",
                              "display": "Allelic phase"
                          }
                      ]
                  },
                  "subject": {
                      "reference": "Patient/HG00628"
                  },
                  "valueCodeableConcept": {
                      "coding": [
                          {
                              "system": "http://hl7.org/fhir/uv/genomics-reporting/CodeSystem/seq-phase-relationship",
                              "code": "Trans",
                              "display": "Trans"
                          }
                      ]
                  },
                  "derivedFrom": [
                      {
                          "reference": "#dv-0b2eaeca3e5e4"
                      },
                      {
                          "reference": "#dv-042596d5b11b4"
                      }
                  ]
              }
          ],
          "status": "final",
          "code": {
              "coding": [
                  {
                      "system": "http://loinc.org",
                      "code": "81247-9",
                      "display": "Master HL7 genetic variant reporting panel"
                  }
              ]
          },
          "subject": {
              "reference": "Patient/HG00628"
          },
          "issued": "2020-06-16T07:01:03+00:00",
          "result": [
              {
                  "reference": "#rs-cd4ce5bf17ba4"
              },
              {
                  "reference": "#dv-0450547ed8a64"
              },
              {
                  "reference": "#dv-7282443d0bf64"
              },
              {
                  "reference": "#dv-19d74586b0c54"
              },
              {
                  "reference": "#dv-44cf48bceed44"
              },
              {
                  "reference": "#dv-0b2eaeca3e5e4"
              },
              {
                  "reference": "#dv-042596d5b11b4"
              },
              {
                  "reference": "#dv-17f520e0ed384"
              },
              {
                  "reference": "#sid-d8fb891258544"
              }
          ]
      }
  ],
  "required": [
      "resourceType",
      "id",
      "meta",
      "contained",
      "status",
      "code",
      "subject",
      "issued",
      "result"
  ],
  "additionalProperties": true,
  "properties": {
      "resourceType": {
          "$id": "#/properties/resourceType",
          "type": "string",
          "title": "The resourceType schema",
          "description": "An explanation about the purpose of this instance.",
          "default": "",
          "examples": [
              "DiagnosticReport"
          ]
      },
      "id": {
          "$id": "#/properties/id",
          "type": "string",
          "title": "The id schema",
          "description": "An explanation about the purpose of this instance.",
          "default": "",
          "examples": [
              "dr-af102187836f4"
          ]
      },
      "meta": {
          "$id": "#/properties/meta",
          "type": "object",
          "title": "The meta schema",
          "description": "An explanation about the purpose of this instance.",
          "default": {},
          "examples": [
              {
                  "profile": [
                      "http://hl7.org/fhir/uv/genomics-reporting/StructureDefinition/genomics-report"
                  ]
              }
          ],
          "required": [
              "profile"
          ],
          "additionalProperties": true,
          "properties": {
              "profile": {
                  "$id": "#/properties/meta/properties/profile",
                  "type": "array",
                  "title": "The profile schema",
                  "description": "An explanation about the purpose of this instance.",
                  "default": [],
                  "examples": [
                      [
                          "http://hl7.org/fhir/uv/genomics-reporting/StructureDefinition/genomics-report"
                      ]
                  ],
                  "additionalItems": true,
                  "items": {
                      "anyOf": [
                          {
                              "$id": "#/properties/meta/properties/profile/items/anyOf/0",
                              "type": "string",
                              "title": "The first anyOf schema",
                              "description": "An explanation about the purpose of this instance.",
                              "default": "",
                              "examples": [
                                  "http://hl7.org/fhir/uv/genomics-reporting/StructureDefinition/genomics-report"
                              ]
                          }
                      ],
                      "$id": "#/properties/meta/properties/profile/items"
                  }
              }
          }
      },
      "contained": {
          "$id": "#/properties/contained",
          "type": "array",
          "title": "The contained schema",
          "description": "An explanation about the purpose of this instance.",
          "default": [],
          "examples": [
              [
                  {
                      "resourceType": "Observation",
                      "id": "rs-cd4ce5bf17ba4",
                      "meta": {
                          "profile": [
                              "http://hl7.org/fhir/uv/genomics-reporting/StructureDefinition/region-studied"
                          ]
                      },
                      "status": "final",
                      "category": [
                          {
                              "coding": [
                                  {
                                      "system": "http://terminology.hl7.org/CodeSystem/observation-category",
                                      "code": "laboratory"
                                  }
                              ]
                          }
                      ],
                      "code": {
                          "coding": [
                              {
                                  "system": "http://loinc.org",
                                  "code": "53041-0",
                                  "display": "DNA region of interest panel"
                              }
                          ]
                      },
                      "subject": {
                          "reference": "Patient/HG00628"
                      },
                      "component": [
                          {
                              "code": {
                                  "coding": [
                                      {
                                          "system": "http://loinc.org",
                                          "code": "92822-6",
                                          "display": "Genomic coord system"
                                      }
                                  ]
                              },
                              "valueCodeableConcept": {
                                  "coding": [
                                      {
                                          "system": "http://loinc.org",
                                          "code": "LA30102-0",
                                          "display": "1-based character counting"
                                      }
                                  ]
                              }
                          },
                          {
                              "code": {
                                  "coding": [
                                      {
                                          "system": "http://loinc.org",
                                          "code": "48013-7",
                                          "display": "Genomic reference sequence ID"
                                      }
                                  ]
                              },
                              "valueCodeableConcept": {
                                  "coding": [
                                      {
                                          "system": "http://www.ncbi.nlm.nih.gov/nuccore",
                                          "code": "NC_000001.10"
                                      }
                                  ]
                              }
                          }
                      ]
                  },
                  {
                      "resourceType": "Observation",
                      "id": "dv-0450547ed8a64",
                      "meta": {
                          "profile": [
                              "http://hl7.org/fhir/uv/genomics-reporting/StructureDefinition/variant"
                          ]
                      },
                      "status": "final",
                      "category": [
                          {
                              "coding": [
                                  {
                                      "system": "http://terminology.hl7.org/CodeSystem/observation-category",
                                      "code": "laboratory"
                                  }
                              ]
                          }
                      ],
                      "code": {
                          "coding": [
                              {
                                  "system": "http://loinc.org",
                                  "code": "69548-6",
                                  "display": "Genetic variant assessment"
                              }
                          ]
                      },
                      "subject": {
                          "reference": "Patient/HG00628"
                      },
                      "valueCodeableConcept": {
                          "coding": [
                              {
                                  "system": "http://loinc.org",
                                  "code": "LA9633-4",
                                  "display": "present"
                              }
                          ]
                      },
                      "component": [
                          {
                              "code": {
                                  "coding": [
                                      {
                                          "system": "http://loinc.org",
                                          "code": "62374-4",
                                          "display": "Human reference sequence assembly version"
                                      }
                                  ]
                              },
                              "valueCodeableConcept": {
                                  "coding": [
                                      {
                                          "system": "http://loinc.org",
                                          "code": "LA14029-5",
                                          "display": "GRCh37"
                                      }
                                  ]
                              }
                          },
                          {
                              "code": {
                                  "coding": [
                                      {
                                          "system": "http://loinc.org",
                                          "code": "48013-7",
                                          "display": "Genomic reference sequence ID"
                                      }
                                  ]
                              },
                              "valueCodeableConcept": {
                                  "coding": [
                                      {
                                          "system": "http://www.ncbi.nlm.nih.gov/nuccore",
                                          "code": "NC_000001.10"
                                      }
                                  ]
                              }
                          },
                          {
                              "code": {
                                  "coding": [
                                      {
                                          "system": "http://loinc.org",
                                          "code": "53034-5",
                                          "display": "Allelic state"
                                      }
                                  ]
                              },
                              "valueCodeableConcept": {
                                  "coding": [
                                      {
                                          "system": "http://loinc.org",
                                          "code": "LA6706-1",
                                          "display": "heterozygous"
                                      }
                                  ]
                              }
                          },
                          {
                              "code": {
                                  "coding": [
                                      {
                                          "system": "http://loinc.org",
                                          "code": "69547-8",
                                          "display": "Genomic Ref allele [ID]"
                                      }
                                  ]
                              },
                              "valueString": "."
                          },
                          {
                              "code": {
                                  "coding": [
                                      {
                                          "system": "http://loinc.org",
                                          "code": "69551-0",
                                          "display": "Genomic Alt allele [ID]"
                                      }
                                  ]
                              },
                              "valueString": "G"
                          },
                          {
                              "code": {
                                  "coding": [
                                      {
                                          "system": "http://loinc.org",
                                          "code": "92822-6",
                                          "display": "Genomic coord system"
                                      }
                                  ]
                              },
                              "valueCodeableConcept": {
                                  "coding": [
                                      {
                                          "system": "http://loinc.org",
                                          "code": "LA30102-0",
                                          "display": "1-based character counting"
                                      }
                                  ]
                              }
                          },
                          {
                              "code": {
                                  "coding": [
                                      {
                                          "system": "http://hl7.org/fhir/uv/genomics-reporting/CodeSystem/tbd-codes",
                                          "code": "exact-start-end",
                                          "display": "Variant exact start and end"
                                      }
                                  ]
                              },
                              "valueRange": {
                                  "low": {
                                      "value": 15
                                  }
                              }
                          }
                      ]
                  }
              ]
          ],
          "additionalItems": true,
          "items": {
              "anyOf": [
                  {
                      "$id": "#/properties/contained/items/anyOf/0",
                      "type": "object",
                      "title": "The first anyOf schema",
                      "description": "An explanation about the purpose of this instance.",
                      "default": {},
                      "examples": [
                          {
                              "resourceType": "Observation",
                              "id": "rs-cd4ce5bf17ba4",
                              "meta": {
                                  "profile": [
                                      "http://hl7.org/fhir/uv/genomics-reporting/StructureDefinition/region-studied"
                                  ]
                              },
                              "status": "final",
                              "category": [
                                  {
                                      "coding": [
                                          {
                                              "system": "http://terminology.hl7.org/CodeSystem/observation-category",
                                              "code": "laboratory"
                                          }
                                      ]
                                  }
                              ],
                              "code": {
                                  "coding": [
                                      {
                                          "system": "http://loinc.org",
                                          "code": "53041-0",
                                          "display": "DNA region of interest panel"
                                      }
                                  ]
                              },
                              "subject": {
                                  "reference": "Patient/HG00628"
                              },
                              "component": [
                                  {
                                      "code": {
                                          "coding": [
                                              {
                                                  "system": "http://loinc.org",
                                                  "code": "92822-6",
                                                  "display": "Genomic coord system"
                                              }
                                          ]
                                      },
                                      "valueCodeableConcept": {
                                          "coding": [
                                              {
                                                  "system": "http://loinc.org",
                                                  "code": "LA30102-0",
                                                  "display": "1-based character counting"
                                              }
                                          ]
                                      }
                                  },
                                  {
                                      "code": {
                                          "coding": [
                                              {
                                                  "system": "http://loinc.org",
                                                  "code": "48013-7",
                                                  "display": "Genomic reference sequence ID"
                                              }
                                          ]
                                      },
                                      "valueCodeableConcept": {
                                          "coding": [
                                              {
                                                  "system": "http://www.ncbi.nlm.nih.gov/nuccore",
                                                  "code": "NC_000001.10"
                                              }
                                          ]
                                      }
                                  }
                              ]
                          }
                      ],
                      "required": [
                          "resourceType",
                          "id",
                          "meta",
                          "status",
                          "category",
                          "code",
                          "subject",
                          "component"
                      ],
                      "additionalProperties": true,
                      "properties": {
                          "resourceType": {
                              "$id": "#/properties/contained/items/anyOf/0/properties/resourceType",
                              "type": "string",
                              "title": "The resourceType schema",
                              "description": "An explanation about the purpose of this instance.",
                              "default": "",
                              "examples": [
                                  "Observation"
                              ]
                          },
                          "id": {
                              "$id": "#/properties/contained/items/anyOf/0/properties/id",
                              "type": "string",
                              "title": "The id schema",
                              "description": "An explanation about the purpose of this instance.",
                              "default": "",
                              "examples": [
                                  "rs-cd4ce5bf17ba4"
                              ]
                          },
                          "meta": {
                              "$id": "#/properties/contained/items/anyOf/0/properties/meta",
                              "type": "object",
                              "title": "The meta schema",
                              "description": "An explanation about the purpose of this instance.",
                              "default": {},
                              "examples": [
                                  {
                                      "profile": [
                                          "http://hl7.org/fhir/uv/genomics-reporting/StructureDefinition/region-studied"
                                      ]
                                  }
                              ],
                              "required": [
                                  "profile"
                              ],
                              "additionalProperties": true,
                              "properties": {
                                  "profile": {
                                      "$id": "#/properties/contained/items/anyOf/0/properties/meta/properties/profile",
                                      "type": "array",
                                      "title": "The profile schema",
                                      "description": "An explanation about the purpose of this instance.",
                                      "default": [],
                                      "examples": [
                                          [
                                              "http://hl7.org/fhir/uv/genomics-reporting/StructureDefinition/region-studied"
                                          ]
                                      ],
                                      "additionalItems": true,
                                      "items": {
                                          "anyOf": [
                                              {
                                                  "$id": "#/properties/contained/items/anyOf/0/properties/meta/properties/profile/items/anyOf/0",
                                                  "type": "string",
                                                  "title": "The first anyOf schema",
                                                  "description": "An explanation about the purpose of this instance.",
                                                  "default": "",
                                                  "examples": [
                                                      "http://hl7.org/fhir/uv/genomics-reporting/StructureDefinition/region-studied"
                                                  ]
                                              }
                                          ],
                                          "$id": "#/properties/contained/items/anyOf/0/properties/meta/properties/profile/items"
                                      }
                                  }
                              }
                          },
                          "status": {
                              "$id": "#/properties/contained/items/anyOf/0/properties/status",
                              "type": "string",
                              "title": "The status schema",
                              "description": "An explanation about the purpose of this instance.",
                              "default": "",
                              "examples": [
                                  "final"
                              ]
                          },
                          "category": {
                              "$id": "#/properties/contained/items/anyOf/0/properties/category",
                              "type": "array",
                              "title": "The category schema",
                              "description": "An explanation about the purpose of this instance.",
                              "default": [],
                              "examples": [
                                  [
                                      {
                                          "coding": [
                                              {
                                                  "system": "http://terminology.hl7.org/CodeSystem/observation-category",
                                                  "code": "laboratory"
                                              }
                                          ]
                                      }
                                  ]
                              ],
                              "additionalItems": true,
                              "items": {
                                  "anyOf": [
                                      {
                                          "$id": "#/properties/contained/items/anyOf/0/properties/category/items/anyOf/0",
                                          "type": "object",
                                          "title": "The first anyOf schema",
                                          "description": "An explanation about the purpose of this instance.",
                                          "default": {},
                                          "examples": [
                                              {
                                                  "coding": [
                                                      {
                                                          "system": "http://terminology.hl7.org/CodeSystem/observation-category",
                                                          "code": "laboratory"
                                                      }
                                                  ]
                                              }
                                          ],
                                          "required": [
                                              "coding"
                                          ],
                                          "additionalProperties": true,
                                          "properties": {
                                              "coding": {
                                                  "$id": "#/properties/contained/items/anyOf/0/properties/category/items/anyOf/0/properties/coding",
                                                  "type": "array",
                                                  "title": "The coding schema",
                                                  "description": "An explanation about the purpose of this instance.",
                                                  "default": [],
                                                  "examples": [
                                                      [
                                                          {
                                                              "system": "http://terminology.hl7.org/CodeSystem/observation-category",
                                                              "code": "laboratory"
                                                          }
                                                      ]
                                                  ],
                                                  "additionalItems": true,
                                                  "items": {
                                                      "anyOf": [
                                                          {
                                                              "$id": "#/properties/contained/items/anyOf/0/properties/category/items/anyOf/0/properties/coding/items/anyOf/0",
                                                              "type": "object",
                                                              "title": "The first anyOf schema",
                                                              "description": "An explanation about the purpose of this instance.",
                                                              "default": {},
                                                              "examples": [
                                                                  {
                                                                      "system": "http://terminology.hl7.org/CodeSystem/observation-category",
                                                                      "code": "laboratory"
                                                                  }
                                                              ],
                                                              "required": [
                                                                  "system",
                                                                  "code"
                                                              ],
                                                              "additionalProperties": true,
                                                              "properties": {
                                                                  "system": {
                                                                      "$id": "#/properties/contained/items/anyOf/0/properties/category/items/anyOf/0/properties/coding/items/anyOf/0/properties/system",
                                                                      "type": "string",
                                                                      "title": "The system schema",
                                                                      "description": "An explanation about the purpose of this instance.",
                                                                      "default": "",
                                                                      "examples": [
                                                                          "http://terminology.hl7.org/CodeSystem/observation-category"
                                                                      ]
                                                                  },
                                                                  "code": {
                                                                      "$id": "#/properties/contained/items/anyOf/0/properties/category/items/anyOf/0/properties/coding/items/anyOf/0/properties/code",
                                                                      "type": "string",
                                                                      "title": "The code schema",
                                                                      "description": "An explanation about the purpose of this instance.",
                                                                      "default": "",
                                                                      "examples": [
                                                                          "laboratory"
                                                                      ]
                                                                  }
                                                              }
                                                          }
                                                      ],
                                                      "$id": "#/properties/contained/items/anyOf/0/properties/category/items/anyOf/0/properties/coding/items"
                                                  }
                                              }
                                          }
                                      }
                                  ],
                                  "$id": "#/properties/contained/items/anyOf/0/properties/category/items"
                              }
                          },
                          "code": {
                              "$id": "#/properties/contained/items/anyOf/0/properties/code",
                              "type": "object",
                              "title": "The code schema",
                              "description": "An explanation about the purpose of this instance.",
                              "default": {},
                              "examples": [
                                  {
                                      "coding": [
                                          {
                                              "system": "http://loinc.org",
                                              "code": "53041-0",
                                              "display": "DNA region of interest panel"
                                          }
                                      ]
                                  }
                              ],
                              "required": [
                                  "coding"
                              ],
                              "additionalProperties": true,
                              "properties": {
                                  "coding": {
                                      "$id": "#/properties/contained/items/anyOf/0/properties/code/properties/coding",
                                      "type": "array",
                                      "title": "The coding schema",
                                      "description": "An explanation about the purpose of this instance.",
                                      "default": [],
                                      "examples": [
                                          [
                                              {
                                                  "system": "http://loinc.org",
                                                  "code": "53041-0",
                                                  "display": "DNA region of interest panel"
                                              }
                                          ]
                                      ],
                                      "additionalItems": true,
                                      "items": {
                                          "anyOf": [
                                              {
                                                  "$id": "#/properties/contained/items/anyOf/0/properties/code/properties/coding/items/anyOf/0",
                                                  "type": "object",
                                                  "title": "The first anyOf schema",
                                                  "description": "An explanation about the purpose of this instance.",
                                                  "default": {},
                                                  "examples": [
                                                      {
                                                          "system": "http://loinc.org",
                                                          "code": "53041-0",
                                                          "display": "DNA region of interest panel"
                                                      }
                                                  ],
                                                  "required": [
                                                      "system",
                                                      "code",
                                                      "display"
                                                  ],
                                                  "additionalProperties": true,
                                                  "properties": {
                                                      "system": {
                                                          "$id": "#/properties/contained/items/anyOf/0/properties/code/properties/coding/items/anyOf/0/properties/system",
                                                          "type": "string",
                                                          "title": "The system schema",
                                                          "description": "An explanation about the purpose of this instance.",
                                                          "default": "",
                                                          "examples": [
                                                              "http://loinc.org"
                                                          ]
                                                      },
                                                      "code": {
                                                          "$id": "#/properties/contained/items/anyOf/0/properties/code/properties/coding/items/anyOf/0/properties/code",
                                                          "type": "string",
                                                          "title": "The code schema",
                                                          "description": "An explanation about the purpose of this instance.",
                                                          "default": "",
                                                          "examples": [
                                                              "53041-0"
                                                          ]
                                                      },
                                                      "display": {
                                                          "$id": "#/properties/contained/items/anyOf/0/properties/code/properties/coding/items/anyOf/0/properties/display",
                                                          "type": "string",
                                                          "title": "The display schema",
                                                          "description": "An explanation about the purpose of this instance.",
                                                          "default": "",
                                                          "examples": [
                                                              "DNA region of interest panel"
                                                          ]
                                                      }
                                                  }
                                              }
                                          ],
                                          "$id": "#/properties/contained/items/anyOf/0/properties/code/properties/coding/items"
                                      }
                                  }
                              }
                          },
                          "subject": {
                              "$id": "#/properties/contained/items/anyOf/0/properties/subject",
                              "type": "object",
                              "title": "The subject schema",
                              "description": "An explanation about the purpose of this instance.",
                              "default": {},
                              "examples": [
                                  {
                                      "reference": "Patient/HG00628"
                                  }
                              ],
                              "required": [
                                  "reference"
                              ],
                              "additionalProperties": true,
                              "properties": {
                                  "reference": {
                                      "$id": "#/properties/contained/items/anyOf/0/properties/subject/properties/reference",
                                      "type": "string",
                                      "title": "The reference schema",
                                      "description": "An explanation about the purpose of this instance.",
                                      "default": "",
                                      "examples": [
                                          "Patient/HG00628"
                                      ]
                                  }
                              }
                          },
                          "component": {
                              "$id": "#/properties/contained/items/anyOf/0/properties/component",
                              "type": "array",
                              "title": "The component schema",
                              "description": "An explanation about the purpose of this instance.",
                              "default": [],
                              "examples": [
                                  [
                                      {
                                          "code": {
                                              "coding": [
                                                  {
                                                      "system": "http://loinc.org",
                                                      "code": "92822-6",
                                                      "display": "Genomic coord system"
                                                  }
                                              ]
                                          },
                                          "valueCodeableConcept": {
                                              "coding": [
                                                  {
                                                      "system": "http://loinc.org",
                                                      "code": "LA30102-0",
                                                      "display": "1-based character counting"
                                                  }
                                              ]
                                          }
                                      },
                                      {
                                          "code": {
                                              "coding": [
                                                  {
                                                      "system": "http://loinc.org",
                                                      "code": "48013-7",
                                                      "display": "Genomic reference sequence ID"
                                                  }
                                              ]
                                          },
                                          "valueCodeableConcept": {
                                              "coding": [
                                                  {
                                                      "system": "http://www.ncbi.nlm.nih.gov/nuccore",
                                                      "code": "NC_000001.10"
                                                  }
                                              ]
                                          }
                                      }
                                  ]
                              ],
                              "additionalItems": true,
                              "items": {
                                  "anyOf": [
                                      {
                                          "$id": "#/properties/contained/items/anyOf/0/properties/component/items/anyOf/0",
                                          "type": "object",
                                          "title": "The first anyOf schema",
                                          "description": "An explanation about the purpose of this instance.",
                                          "default": {},
                                          "examples": [
                                              {
                                                  "code": {
                                                      "coding": [
                                                          {
                                                              "system": "http://loinc.org",
                                                              "code": "92822-6",
                                                              "display": "Genomic coord system"
                                                          }
                                                      ]
                                                  },
                                                  "valueCodeableConcept": {
                                                      "coding": [
                                                          {
                                                              "system": "http://loinc.org",
                                                              "code": "LA30102-0",
                                                              "display": "1-based character counting"
                                                          }
                                                      ]
                                                  }
                                              }
                                          ],
                                          "required": [
                                              "code",
                                              "valueCodeableConcept"
                                          ],
                                          "additionalProperties": true,
                                          "properties": {
                                              "code": {
                                                  "$id": "#/properties/contained/items/anyOf/0/properties/component/items/anyOf/0/properties/code",
                                                  "type": "object",
                                                  "title": "The code schema",
                                                  "description": "An explanation about the purpose of this instance.",
                                                  "default": {},
                                                  "examples": [
                                                      {
                                                          "coding": [
                                                              {
                                                                  "system": "http://loinc.org",
                                                                  "code": "92822-6",
                                                                  "display": "Genomic coord system"
                                                              }
                                                          ]
                                                      }
                                                  ],
                                                  "required": [
                                                      "coding"
                                                  ],
                                                  "additionalProperties": true,
                                                  "properties": {
                                                      "coding": {
                                                          "$id": "#/properties/contained/items/anyOf/0/properties/component/items/anyOf/0/properties/code/properties/coding",
                                                          "type": "array",
                                                          "title": "The coding schema",
                                                          "description": "An explanation about the purpose of this instance.",
                                                          "default": [],
                                                          "examples": [
                                                              [
                                                                  {
                                                                      "system": "http://loinc.org",
                                                                      "code": "92822-6",
                                                                      "display": "Genomic coord system"
                                                                  }
                                                              ]
                                                          ],
                                                          "additionalItems": true,
                                                          "items": {
                                                              "anyOf": [
                                                                  {
                                                                      "$id": "#/properties/contained/items/anyOf/0/properties/component/items/anyOf/0/properties/code/properties/coding/items/anyOf/0",
                                                                      "type": "object",
                                                                      "title": "The first anyOf schema",
                                                                      "description": "An explanation about the purpose of this instance.",
                                                                      "default": {},
                                                                      "examples": [
                                                                          {
                                                                              "system": "http://loinc.org",
                                                                              "code": "92822-6",
                                                                              "display": "Genomic coord system"
                                                                          }
                                                                      ],
                                                                      "required": [
                                                                          "system",
                                                                          "code",
                                                                          "display"
                                                                      ],
                                                                      "additionalProperties": true,
                                                                      "properties": {
                                                                          "system": {
                                                                              "$id": "#/properties/contained/items/anyOf/0/properties/component/items/anyOf/0/properties/code/properties/coding/items/anyOf/0/properties/system",
                                                                              "type": "string",
                                                                              "title": "The system schema",
                                                                              "description": "An explanation about the purpose of this instance.",
                                                                              "default": "",
                                                                              "examples": [
                                                                                  "http://loinc.org"
                                                                              ]
                                                                          },
                                                                          "code": {
                                                                              "$id": "#/properties/contained/items/anyOf/0/properties/component/items/anyOf/0/properties/code/properties/coding/items/anyOf/0/properties/code",
                                                                              "type": "string",
                                                                              "title": "The code schema",
                                                                              "description": "An explanation about the purpose of this instance.",
                                                                              "default": "",
                                                                              "examples": [
                                                                                  "92822-6"
                                                                              ]
                                                                          },
                                                                          "display": {
                                                                              "$id": "#/properties/contained/items/anyOf/0/properties/component/items/anyOf/0/properties/code/properties/coding/items/anyOf/0/properties/display",
                                                                              "type": "string",
                                                                              "title": "The display schema",
                                                                              "description": "An explanation about the purpose of this instance.",
                                                                              "default": "",
                                                                              "examples": [
                                                                                  "Genomic coord system"
                                                                              ]
                                                                          }
                                                                      }
                                                                  }
                                                              ],
                                                              "$id": "#/properties/contained/items/anyOf/0/properties/component/items/anyOf/0/properties/code/properties/coding/items"
                                                          }
                                                      }
                                                  }
                                              },
                                              "valueCodeableConcept": {
                                                  "$id": "#/properties/contained/items/anyOf/0/properties/component/items/anyOf/0/properties/valueCodeableConcept",
                                                  "type": "object",
                                                  "title": "The valueCodeableConcept schema",
                                                  "description": "An explanation about the purpose of this instance.",
                                                  "default": {},
                                                  "examples": [
                                                      {
                                                          "coding": [
                                                              {
                                                                  "system": "http://loinc.org",
                                                                  "code": "LA30102-0",
                                                                  "display": "1-based character counting"
                                                              }
                                                          ]
                                                      }
                                                  ],
                                                  "required": [
                                                      "coding"
                                                  ],
                                                  "additionalProperties": true,
                                                  "properties": {
                                                      "coding": {
                                                          "$id": "#/properties/contained/items/anyOf/0/properties/component/items/anyOf/0/properties/valueCodeableConcept/properties/coding",
                                                          "type": "array",
                                                          "title": "The coding schema",
                                                          "description": "An explanation about the purpose of this instance.",
                                                          "default": [],
                                                          "examples": [
                                                              [
                                                                  {
                                                                      "system": "http://loinc.org",
                                                                      "code": "LA30102-0",
                                                                      "display": "1-based character counting"
                                                                  }
                                                              ]
                                                          ],
                                                          "additionalItems": true,
                                                          "items": {
                                                              "anyOf": [
                                                                  {
                                                                      "$id": "#/properties/contained/items/anyOf/0/properties/component/items/anyOf/0/properties/valueCodeableConcept/properties/coding/items/anyOf/0",
                                                                      "type": "object",
                                                                      "title": "The first anyOf schema",
                                                                      "description": "An explanation about the purpose of this instance.",
                                                                      "default": {},
                                                                      "examples": [
                                                                          {
                                                                              "system": "http://loinc.org",
                                                                              "code": "LA30102-0",
                                                                              "display": "1-based character counting"
                                                                          }
                                                                      ],
                                                                      "required": [
                                                                          "system",
                                                                          "code",
                                                                          "display"
                                                                      ],
                                                                      "additionalProperties": true,
                                                                      "properties": {
                                                                          "system": {
                                                                              "$id": "#/properties/contained/items/anyOf/0/properties/component/items/anyOf/0/properties/valueCodeableConcept/properties/coding/items/anyOf/0/properties/system",
                                                                              "type": "string",
                                                                              "title": "The system schema",
                                                                              "description": "An explanation about the purpose of this instance.",
                                                                              "default": "",
                                                                              "examples": [
                                                                                  "http://loinc.org"
                                                                              ]
                                                                          },
                                                                          "code": {
                                                                              "$id": "#/properties/contained/items/anyOf/0/properties/component/items/anyOf/0/properties/valueCodeableConcept/properties/coding/items/anyOf/0/properties/code",
                                                                              "type": "string",
                                                                              "title": "The code schema",
                                                                              "description": "An explanation about the purpose of this instance.",
                                                                              "default": "",
                                                                              "examples": [
                                                                                  "LA30102-0"
                                                                              ]
                                                                          },
                                                                          "display": {
                                                                              "$id": "#/properties/contained/items/anyOf/0/properties/component/items/anyOf/0/properties/valueCodeableConcept/properties/coding/items/anyOf/0/properties/display",
                                                                              "type": "string",
                                                                              "title": "The display schema",
                                                                              "description": "An explanation about the purpose of this instance.",
                                                                              "default": "",
                                                                              "examples": [
                                                                                  "1-based character counting"
                                                                              ]
                                                                          }
                                                                      }
                                                                  }
                                                              ],
                                                              "$id": "#/properties/contained/items/anyOf/0/properties/component/items/anyOf/0/properties/valueCodeableConcept/properties/coding/items"
                                                          }
                                                      }
                                                  }
                                              }
                                          }
                                      }
                                  ],
                                  "$id": "#/properties/contained/items/anyOf/0/properties/component/items"
                              }
                          }
                      }
                  },
                  {
                      "$id": "#/properties/contained/items/anyOf/1",
                      "type": "object",
                      "title": "The second anyOf schema",
                      "description": "An explanation about the purpose of this instance.",
                      "default": {},
                      "examples": [
                          {
                              "resourceType": "Observation",
                              "id": "dv-0450547ed8a64",
                              "meta": {
                                  "profile": [
                                      "http://hl7.org/fhir/uv/genomics-reporting/StructureDefinition/variant"
                                  ]
                              },
                              "status": "final",
                              "category": [
                                  {
                                      "coding": [
                                          {
                                              "system": "http://terminology.hl7.org/CodeSystem/observation-category",
                                              "code": "laboratory"
                                          }
                                      ]
                                  }
                              ],
                              "code": {
                                  "coding": [
                                      {
                                          "system": "http://loinc.org",
                                          "code": "69548-6",
                                          "display": "Genetic variant assessment"
                                      }
                                  ]
                              },
                              "subject": {
                                  "reference": "Patient/HG00628"
                              },
                              "valueCodeableConcept": {
                                  "coding": [
                                      {
                                          "system": "http://loinc.org",
                                          "code": "LA9633-4",
                                          "display": "present"
                                      }
                                  ]
                              },
                              "component": [
                                  {
                                      "code": {
                                          "coding": [
                                              {
                                                  "system": "http://loinc.org",
                                                  "code": "62374-4",
                                                  "display": "Human reference sequence assembly version"
                                              }
                                          ]
                                      },
                                      "valueCodeableConcept": {
                                          "coding": [
                                              {
                                                  "system": "http://loinc.org",
                                                  "code": "LA14029-5",
                                                  "display": "GRCh37"
                                              }
                                          ]
                                      }
                                  },
                                  {
                                      "code": {
                                          "coding": [
                                              {
                                                  "system": "http://loinc.org",
                                                  "code": "48013-7",
                                                  "display": "Genomic reference sequence ID"
                                              }
                                          ]
                                      },
                                      "valueCodeableConcept": {
                                          "coding": [
                                              {
                                                  "system": "http://www.ncbi.nlm.nih.gov/nuccore",
                                                  "code": "NC_000001.10"
                                              }
                                          ]
                                      }
                                  },
                                  {
                                      "code": {
                                          "coding": [
                                              {
                                                  "system": "http://loinc.org",
                                                  "code": "53034-5",
                                                  "display": "Allelic state"
                                              }
                                          ]
                                      },
                                      "valueCodeableConcept": {
                                          "coding": [
                                              {
                                                  "system": "http://loinc.org",
                                                  "code": "LA6706-1",
                                                  "display": "heterozygous"
                                              }
                                          ]
                                      }
                                  },
                                  {
                                      "code": {
                                          "coding": [
                                              {
                                                  "system": "http://loinc.org",
                                                  "code": "69547-8",
                                                  "display": "Genomic Ref allele [ID]"
                                              }
                                          ]
                                      },
                                      "valueString": "."
                                  },
                                  {
                                      "code": {
                                          "coding": [
                                              {
                                                  "system": "http://loinc.org",
                                                  "code": "69551-0",
                                                  "display": "Genomic Alt allele [ID]"
                                              }
                                          ]
                                      },
                                      "valueString": "G"
                                  },
                                  {
                                      "code": {
                                          "coding": [
                                              {
                                                  "system": "http://loinc.org",
                                                  "code": "92822-6",
                                                  "display": "Genomic coord system"
                                              }
                                          ]
                                      },
                                      "valueCodeableConcept": {
                                          "coding": [
                                              {
                                                  "system": "http://loinc.org",
                                                  "code": "LA30102-0",
                                                  "display": "1-based character counting"
                                              }
                                          ]
                                      }
                                  },
                                  {
                                      "code": {
                                          "coding": [
                                              {
                                                  "system": "http://hl7.org/fhir/uv/genomics-reporting/CodeSystem/tbd-codes",
                                                  "code": "exact-start-end",
                                                  "display": "Variant exact start and end"
                                              }
                                          ]
                                      },
                                      "valueRange": {
                                          "low": {
                                              "value": 15
                                          }
                                      }
                                  }
                              ]
                          }
                      ],
                      "required": [
                          "resourceType",
                          "id",
                          "meta",
                          "status",
                          "category",
                          "code",
                          "subject",
                          "valueCodeableConcept",
                          "component"
                      ],
                      "additionalProperties": true,
                      "properties": {
                          "resourceType": {
                              "$id": "#/properties/contained/items/anyOf/1/properties/resourceType",
                              "type": "string",
                              "title": "The resourceType schema",
                              "description": "An explanation about the purpose of this instance.",
                              "default": "",
                              "examples": [
                                  "Observation"
                              ]
                          },
                          "id": {
                              "$id": "#/properties/contained/items/anyOf/1/properties/id",
                              "type": "string",
                              "title": "The id schema",
                              "description": "An explanation about the purpose of this instance.",
                              "default": "",
                              "examples": [
                                  "dv-0450547ed8a64"
                              ]
                          },
                          "meta": {
                              "$id": "#/properties/contained/items/anyOf/1/properties/meta",
                              "type": "object",
                              "title": "The meta schema",
                              "description": "An explanation about the purpose of this instance.",
                              "default": {},
                              "examples": [
                                  {
                                      "profile": [
                                          "http://hl7.org/fhir/uv/genomics-reporting/StructureDefinition/variant"
                                      ]
                                  }
                              ],
                              "required": [
                                  "profile"
                              ],
                              "additionalProperties": true,
                              "properties": {
                                  "profile": {
                                      "$id": "#/properties/contained/items/anyOf/1/properties/meta/properties/profile",
                                      "type": "array",
                                      "title": "The profile schema",
                                      "description": "An explanation about the purpose of this instance.",
                                      "default": [],
                                      "examples": [
                                          [
                                              "http://hl7.org/fhir/uv/genomics-reporting/StructureDefinition/variant"
                                          ]
                                      ],
                                      "additionalItems": true,
                                      "items": {
                                          "anyOf": [
                                              {
                                                  "$id": "#/properties/contained/items/anyOf/1/properties/meta/properties/profile/items/anyOf/0",
                                                  "type": "string",
                                                  "title": "The first anyOf schema",
                                                  "description": "An explanation about the purpose of this instance.",
                                                  "default": "",
                                                  "examples": [
                                                      "http://hl7.org/fhir/uv/genomics-reporting/StructureDefinition/variant"
                                                  ]
                                              }
                                          ],
                                          "$id": "#/properties/contained/items/anyOf/1/properties/meta/properties/profile/items"
                                      }
                                  }
                              }
                          },
                          "status": {
                              "$id": "#/properties/contained/items/anyOf/1/properties/status",
                              "type": "string",
                              "title": "The status schema",
                              "description": "An explanation about the purpose of this instance.",
                              "default": "",
                              "examples": [
                                  "final"
                              ]
                          },
                          "category": {
                              "$id": "#/properties/contained/items/anyOf/1/properties/category",
                              "type": "array",
                              "title": "The category schema",
                              "description": "An explanation about the purpose of this instance.",
                              "default": [],
                              "examples": [
                                  [
                                      {
                                          "coding": [
                                              {
                                                  "system": "http://terminology.hl7.org/CodeSystem/observation-category",
                                                  "code": "laboratory"
                                              }
                                          ]
                                      }
                                  ]
                              ],
                              "additionalItems": true,
                              "items": {
                                  "anyOf": [
                                      {
                                          "$id": "#/properties/contained/items/anyOf/1/properties/category/items/anyOf/0",
                                          "type": "object",
                                          "title": "The first anyOf schema",
                                          "description": "An explanation about the purpose of this instance.",
                                          "default": {},
                                          "examples": [
                                              {
                                                  "coding": [
                                                      {
                                                          "system": "http://terminology.hl7.org/CodeSystem/observation-category",
                                                          "code": "laboratory"
                                                      }
                                                  ]
                                              }
                                          ],
                                          "required": [
                                              "coding"
                                          ],
                                          "additionalProperties": true,
                                          "properties": {
                                              "coding": {
                                                  "$id": "#/properties/contained/items/anyOf/1/properties/category/items/anyOf/0/properties/coding",
                                                  "type": "array",
                                                  "title": "The coding schema",
                                                  "description": "An explanation about the purpose of this instance.",
                                                  "default": [],
                                                  "examples": [
                                                      [
                                                          {
                                                              "system": "http://terminology.hl7.org/CodeSystem/observation-category",
                                                              "code": "laboratory"
                                                          }
                                                      ]
                                                  ],
                                                  "additionalItems": true,
                                                  "items": {
                                                      "anyOf": [
                                                          {
                                                              "$id": "#/properties/contained/items/anyOf/1/properties/category/items/anyOf/0/properties/coding/items/anyOf/0",
                                                              "type": "object",
                                                              "title": "The first anyOf schema",
                                                              "description": "An explanation about the purpose of this instance.",
                                                              "default": {},
                                                              "examples": [
                                                                  {
                                                                      "system": "http://terminology.hl7.org/CodeSystem/observation-category",
                                                                      "code": "laboratory"
                                                                  }
                                                              ],
                                                              "required": [
                                                                  "system",
                                                                  "code"
                                                              ],
                                                              "additionalProperties": true,
                                                              "properties": {
                                                                  "system": {
                                                                      "$id": "#/properties/contained/items/anyOf/1/properties/category/items/anyOf/0/properties/coding/items/anyOf/0/properties/system",
                                                                      "type": "string",
                                                                      "title": "The system schema",
                                                                      "description": "An explanation about the purpose of this instance.",
                                                                      "default": "",
                                                                      "examples": [
                                                                          "http://terminology.hl7.org/CodeSystem/observation-category"
                                                                      ]
                                                                  },
                                                                  "code": {
                                                                      "$id": "#/properties/contained/items/anyOf/1/properties/category/items/anyOf/0/properties/coding/items/anyOf/0/properties/code",
                                                                      "type": "string",
                                                                      "title": "The code schema",
                                                                      "description": "An explanation about the purpose of this instance.",
                                                                      "default": "",
                                                                      "examples": [
                                                                          "laboratory"
                                                                      ]
                                                                  }
                                                              }
                                                          }
                                                      ],
                                                      "$id": "#/properties/contained/items/anyOf/1/properties/category/items/anyOf/0/properties/coding/items"
                                                  }
                                              }
                                          }
                                      }
                                  ],
                                  "$id": "#/properties/contained/items/anyOf/1/properties/category/items"
                              }
                          },
                          "code": {
                              "$id": "#/properties/contained/items/anyOf/1/properties/code",
                              "type": "object",
                              "title": "The code schema",
                              "description": "An explanation about the purpose of this instance.",
                              "default": {},
                              "examples": [
                                  {
                                      "coding": [
                                          {
                                              "system": "http://loinc.org",
                                              "code": "69548-6",
                                              "display": "Genetic variant assessment"
                                          }
                                      ]
                                  }
                              ],
                              "required": [
                                  "coding"
                              ],
                              "additionalProperties": true,
                              "properties": {
                                  "coding": {
                                      "$id": "#/properties/contained/items/anyOf/1/properties/code/properties/coding",
                                      "type": "array",
                                      "title": "The coding schema",
                                      "description": "An explanation about the purpose of this instance.",
                                      "default": [],
                                      "examples": [
                                          [
                                              {
                                                  "system": "http://loinc.org",
                                                  "code": "69548-6",
                                                  "display": "Genetic variant assessment"
                                              }
                                          ]
                                      ],
                                      "additionalItems": true,
                                      "items": {
                                          "anyOf": [
                                              {
                                                  "$id": "#/properties/contained/items/anyOf/1/properties/code/properties/coding/items/anyOf/0",
                                                  "type": "object",
                                                  "title": "The first anyOf schema",
                                                  "description": "An explanation about the purpose of this instance.",
                                                  "default": {},
                                                  "examples": [
                                                      {
                                                          "system": "http://loinc.org",
                                                          "code": "69548-6",
                                                          "display": "Genetic variant assessment"
                                                      }
                                                  ],
                                                  "required": [
                                                      "system",
                                                      "code",
                                                      "display"
                                                  ],
                                                  "additionalProperties": true,
                                                  "properties": {
                                                      "system": {
                                                          "$id": "#/properties/contained/items/anyOf/1/properties/code/properties/coding/items/anyOf/0/properties/system",
                                                          "type": "string",
                                                          "title": "The system schema",
                                                          "description": "An explanation about the purpose of this instance.",
                                                          "default": "",
                                                          "examples": [
                                                              "http://loinc.org"
                                                          ]
                                                      },
                                                      "code": {
                                                          "$id": "#/properties/contained/items/anyOf/1/properties/code/properties/coding/items/anyOf/0/properties/code",
                                                          "type": "string",
                                                          "title": "The code schema",
                                                          "description": "An explanation about the purpose of this instance.",
                                                          "default": "",
                                                          "examples": [
                                                              "69548-6"
                                                          ]
                                                      },
                                                      "display": {
                                                          "$id": "#/properties/contained/items/anyOf/1/properties/code/properties/coding/items/anyOf/0/properties/display",
                                                          "type": "string",
                                                          "title": "The display schema",
                                                          "description": "An explanation about the purpose of this instance.",
                                                          "default": "",
                                                          "examples": [
                                                              "Genetic variant assessment"
                                                          ]
                                                      }
                                                  }
                                              }
                                          ],
                                          "$id": "#/properties/contained/items/anyOf/1/properties/code/properties/coding/items"
                                      }
                                  }
                              }
                          },
                          "subject": {
                              "$id": "#/properties/contained/items/anyOf/1/properties/subject",
                              "type": "object",
                              "title": "The subject schema",
                              "description": "An explanation about the purpose of this instance.",
                              "default": {},
                              "examples": [
                                  {
                                      "reference": "Patient/HG00628"
                                  }
                              ],
                              "required": [
                                  "reference"
                              ],
                              "additionalProperties": true,
                              "properties": {
                                  "reference": {
                                      "$id": "#/properties/contained/items/anyOf/1/properties/subject/properties/reference",
                                      "type": "string",
                                      "title": "The reference schema",
                                      "description": "An explanation about the purpose of this instance.",
                                      "default": "",
                                      "examples": [
                                          "Patient/HG00628"
                                      ]
                                  }
                              }
                          },
                          "valueCodeableConcept": {
                              "$id": "#/properties/contained/items/anyOf/1/properties/valueCodeableConcept",
                              "type": "object",
                              "title": "The valueCodeableConcept schema",
                              "description": "An explanation about the purpose of this instance.",
                              "default": {},
                              "examples": [
                                  {
                                      "coding": [
                                          {
                                              "system": "http://loinc.org",
                                              "code": "LA9633-4",
                                              "display": "present"
                                          }
                                      ]
                                  }
                              ],
                              "required": [
                                  "coding"
                              ],
                              "additionalProperties": true,
                              "properties": {
                                  "coding": {
                                      "$id": "#/properties/contained/items/anyOf/1/properties/valueCodeableConcept/properties/coding",
                                      "type": "array",
                                      "title": "The coding schema",
                                      "description": "An explanation about the purpose of this instance.",
                                      "default": [],
                                      "examples": [
                                          [
                                              {
                                                  "system": "http://loinc.org",
                                                  "code": "LA9633-4",
                                                  "display": "present"
                                              }
                                          ]
                                      ],
                                      "additionalItems": true,
                                      "items": {
                                          "anyOf": [
                                              {
                                                  "$id": "#/properties/contained/items/anyOf/1/properties/valueCodeableConcept/properties/coding/items/anyOf/0",
                                                  "type": "object",
                                                  "title": "The first anyOf schema",
                                                  "description": "An explanation about the purpose of this instance.",
                                                  "default": {},
                                                  "examples": [
                                                      {
                                                          "system": "http://loinc.org",
                                                          "code": "LA9633-4",
                                                          "display": "present"
                                                      }
                                                  ],
                                                  "required": [
                                                      "system",
                                                      "code",
                                                      "display"
                                                  ],
                                                  "additionalProperties": true,
                                                  "properties": {
                                                      "system": {
                                                          "$id": "#/properties/contained/items/anyOf/1/properties/valueCodeableConcept/properties/coding/items/anyOf/0/properties/system",
                                                          "type": "string",
                                                          "title": "The system schema",
                                                          "description": "An explanation about the purpose of this instance.",
                                                          "default": "",
                                                          "examples": [
                                                              "http://loinc.org"
                                                          ]
                                                      },
                                                      "code": {
                                                          "$id": "#/properties/contained/items/anyOf/1/properties/valueCodeableConcept/properties/coding/items/anyOf/0/properties/code",
                                                          "type": "string",
                                                          "title": "The code schema",
                                                          "description": "An explanation about the purpose of this instance.",
                                                          "default": "",
                                                          "examples": [
                                                              "LA9633-4"
                                                          ]
                                                      },
                                                      "display": {
                                                          "$id": "#/properties/contained/items/anyOf/1/properties/valueCodeableConcept/properties/coding/items/anyOf/0/properties/display",
                                                          "type": "string",
                                                          "title": "The display schema",
                                                          "description": "An explanation about the purpose of this instance.",
                                                          "default": "",
                                                          "examples": [
                                                              "present"
                                                          ]
                                                      }
                                                  }
                                              }
                                          ],
                                          "$id": "#/properties/contained/items/anyOf/1/properties/valueCodeableConcept/properties/coding/items"
                                      }
                                  }
                              }
                          },
                          "component": {
                              "$id": "#/properties/contained/items/anyOf/1/properties/component",
                              "type": "array",
                              "title": "The component schema",
                              "description": "An explanation about the purpose of this instance.",
                              "default": [],
                              "examples": [
                                  [
                                      {
                                          "code": {
                                              "coding": [
                                                  {
                                                      "system": "http://loinc.org",
                                                      "code": "62374-4",
                                                      "display": "Human reference sequence assembly version"
                                                  }
                                              ]
                                          },
                                          "valueCodeableConcept": {
                                              "coding": [
                                                  {
                                                      "system": "http://loinc.org",
                                                      "code": "LA14029-5",
                                                      "display": "GRCh37"
                                                  }
                                              ]
                                          }
                                      },
                                      {
                                          "code": {
                                              "coding": [
                                                  {
                                                      "system": "http://loinc.org",
                                                      "code": "48013-7",
                                                      "display": "Genomic reference sequence ID"
                                                  }
                                              ]
                                          },
                                          "valueCodeableConcept": {
                                              "coding": [
                                                  {
                                                      "system": "http://www.ncbi.nlm.nih.gov/nuccore",
                                                      "code": "NC_000001.10"
                                                  }
                                              ]
                                          }
                                      }
                                  ]
                              ],
                              "additionalItems": true,
                              "items": {
                                  "anyOf": [
                                      {
                                          "$id": "#/properties/contained/items/anyOf/1/properties/component/items/anyOf/0",
                                          "type": "object",
                                          "title": "The first anyOf schema",
                                          "description": "An explanation about the purpose of this instance.",
                                          "default": {},
                                          "examples": [
                                              {
                                                  "code": {
                                                      "coding": [
                                                          {
                                                              "system": "http://loinc.org",
                                                              "code": "62374-4",
                                                              "display": "Human reference sequence assembly version"
                                                          }
                                                      ]
                                                  },
                                                  "valueCodeableConcept": {
                                                      "coding": [
                                                          {
                                                              "system": "http://loinc.org",
                                                              "code": "LA14029-5",
                                                              "display": "GRCh37"
                                                          }
                                                      ]
                                                  }
                                              }
                                          ],
                                          "required": [
                                              "code",
                                              "valueCodeableConcept"
                                          ],
                                          "additionalProperties": true,
                                          "properties": {
                                              "code": {
                                                  "$id": "#/properties/contained/items/anyOf/1/properties/component/items/anyOf/0/properties/code",
                                                  "type": "object",
                                                  "title": "The code schema",
                                                  "description": "An explanation about the purpose of this instance.",
                                                  "default": {},
                                                  "examples": [
                                                      {
                                                          "coding": [
                                                              {
                                                                  "system": "http://loinc.org",
                                                                  "code": "62374-4",
                                                                  "display": "Human reference sequence assembly version"
                                                              }
                                                          ]
                                                      }
                                                  ],
                                                  "required": [
                                                      "coding"
                                                  ],
                                                  "additionalProperties": true,
                                                  "properties": {
                                                      "coding": {
                                                          "$id": "#/properties/contained/items/anyOf/1/properties/component/items/anyOf/0/properties/code/properties/coding",
                                                          "type": "array",
                                                          "title": "The coding schema",
                                                          "description": "An explanation about the purpose of this instance.",
                                                          "default": [],
                                                          "examples": [
                                                              [
                                                                  {
                                                                      "system": "http://loinc.org",
                                                                      "code": "62374-4",
                                                                      "display": "Human reference sequence assembly version"
                                                                  }
                                                              ]
                                                          ],
                                                          "additionalItems": true,
                                                          "items": {
                                                              "anyOf": [
                                                                  {
                                                                      "$id": "#/properties/contained/items/anyOf/1/properties/component/items/anyOf/0/properties/code/properties/coding/items/anyOf/0",
                                                                      "type": "object",
                                                                      "title": "The first anyOf schema",
                                                                      "description": "An explanation about the purpose of this instance.",
                                                                      "default": {},
                                                                      "examples": [
                                                                          {
                                                                              "system": "http://loinc.org",
                                                                              "code": "62374-4",
                                                                              "display": "Human reference sequence assembly version"
                                                                          }
                                                                      ],
                                                                      "required": [
                                                                          "system",
                                                                          "code",
                                                                          "display"
                                                                      ],
                                                                      "additionalProperties": true,
                                                                      "properties": {
                                                                          "system": {
                                                                              "$id": "#/properties/contained/items/anyOf/1/properties/component/items/anyOf/0/properties/code/properties/coding/items/anyOf/0/properties/system",
                                                                              "type": "string",
                                                                              "title": "The system schema",
                                                                              "description": "An explanation about the purpose of this instance.",
                                                                              "default": "",
                                                                              "examples": [
                                                                                  "http://loinc.org"
                                                                              ]
                                                                          },
                                                                          "code": {
                                                                              "$id": "#/properties/contained/items/anyOf/1/properties/component/items/anyOf/0/properties/code/properties/coding/items/anyOf/0/properties/code",
                                                                              "type": "string",
                                                                              "title": "The code schema",
                                                                              "description": "An explanation about the purpose of this instance.",
                                                                              "default": "",
                                                                              "examples": [
                                                                                  "62374-4"
                                                                              ]
                                                                          },
                                                                          "display": {
                                                                              "$id": "#/properties/contained/items/anyOf/1/properties/component/items/anyOf/0/properties/code/properties/coding/items/anyOf/0/properties/display",
                                                                              "type": "string",
                                                                              "title": "The display schema",
                                                                              "description": "An explanation about the purpose of this instance.",
                                                                              "default": "",
                                                                              "examples": [
                                                                                  "Human reference sequence assembly version"
                                                                              ]
                                                                          }
                                                                      }
                                                                  }
                                                              ],
                                                              "$id": "#/properties/contained/items/anyOf/1/properties/component/items/anyOf/0/properties/code/properties/coding/items"
                                                          }
                                                      }
                                                  }
                                              },
                                              "valueCodeableConcept": {
                                                  "$id": "#/properties/contained/items/anyOf/1/properties/component/items/anyOf/0/properties/valueCodeableConcept",
                                                  "type": "object",
                                                  "title": "The valueCodeableConcept schema",
                                                  "description": "An explanation about the purpose of this instance.",
                                                  "default": {},
                                                  "examples": [
                                                      {
                                                          "coding": [
                                                              {
                                                                  "system": "http://loinc.org",
                                                                  "code": "LA14029-5",
                                                                  "display": "GRCh37"
                                                              }
                                                          ]
                                                      }
                                                  ],
                                                  "required": [
                                                      "coding"
                                                  ],
                                                  "additionalProperties": true,
                                                  "properties": {
                                                      "coding": {
                                                          "$id": "#/properties/contained/items/anyOf/1/properties/component/items/anyOf/0/properties/valueCodeableConcept/properties/coding",
                                                          "type": "array",
                                                          "title": "The coding schema",
                                                          "description": "An explanation about the purpose of this instance.",
                                                          "default": [],
                                                          "examples": [
                                                              [
                                                                  {
                                                                      "system": "http://loinc.org",
                                                                      "code": "LA14029-5",
                                                                      "display": "GRCh37"
                                                                  }
                                                              ]
                                                          ],
                                                          "additionalItems": true,
                                                          "items": {
                                                              "anyOf": [
                                                                  {
                                                                      "$id": "#/properties/contained/items/anyOf/1/properties/component/items/anyOf/0/properties/valueCodeableConcept/properties/coding/items/anyOf/0",
                                                                      "type": "object",
                                                                      "title": "The first anyOf schema",
                                                                      "description": "An explanation about the purpose of this instance.",
                                                                      "default": {},
                                                                      "examples": [
                                                                          {
                                                                              "system": "http://loinc.org",
                                                                              "code": "LA14029-5",
                                                                              "display": "GRCh37"
                                                                          }
                                                                      ],
                                                                      "required": [
                                                                          "system",
                                                                          "code",
                                                                          "display"
                                                                      ],
                                                                      "additionalProperties": true,
                                                                      "properties": {
                                                                          "system": {
                                                                              "$id": "#/properties/contained/items/anyOf/1/properties/component/items/anyOf/0/properties/valueCodeableConcept/properties/coding/items/anyOf/0/properties/system",
                                                                              "type": "string",
                                                                              "title": "The system schema",
                                                                              "description": "An explanation about the purpose of this instance.",
                                                                              "default": "",
                                                                              "examples": [
                                                                                  "http://loinc.org"
                                                                              ]
                                                                          },
                                                                          "code": {
                                                                              "$id": "#/properties/contained/items/anyOf/1/properties/component/items/anyOf/0/properties/valueCodeableConcept/properties/coding/items/anyOf/0/properties/code",
                                                                              "type": "string",
                                                                              "title": "The code schema",
                                                                              "description": "An explanation about the purpose of this instance.",
                                                                              "default": "",
                                                                              "examples": [
                                                                                  "LA14029-5"
                                                                              ]
                                                                          },
                                                                          "display": {
                                                                              "$id": "#/properties/contained/items/anyOf/1/properties/component/items/anyOf/0/properties/valueCodeableConcept/properties/coding/items/anyOf/0/properties/display",
                                                                              "type": "string",
                                                                              "title": "The display schema",
                                                                              "description": "An explanation about the purpose of this instance.",
                                                                              "default": "",
                                                                              "examples": [
                                                                                  "GRCh37"
                                                                              ]
                                                                          }
                                                                      }
                                                                  }
                                                              ],
                                                              "$id": "#/properties/contained/items/anyOf/1/properties/component/items/anyOf/0/properties/valueCodeableConcept/properties/coding/items"
                                                          }
                                                      }
                                                  }
                                              }
                                          }
                                      },
                                      {
                                          "$id": "#/properties/contained/items/anyOf/1/properties/component/items/anyOf/1",
                                          "type": "object",
                                          "title": "The second anyOf schema",
                                          "description": "An explanation about the purpose of this instance.",
                                          "default": {},
                                          "examples": [
                                              {
                                                  "code": {
                                                      "coding": [
                                                          {
                                                              "system": "http://loinc.org",
                                                              "code": "69547-8",
                                                              "display": "Genomic Ref allele [ID]"
                                                          }
                                                      ]
                                                  },
                                                  "valueString": "."
                                              }
                                          ],
                                          "required": [
                                              "code",
                                              "valueString"
                                          ],
                                          "additionalProperties": true,
                                          "properties": {
                                              "code": {
                                                  "$id": "#/properties/contained/items/anyOf/1/properties/component/items/anyOf/1/properties/code",
                                                  "type": "object",
                                                  "title": "The code schema",
                                                  "description": "An explanation about the purpose of this instance.",
                                                  "default": {},
                                                  "examples": [
                                                      {
                                                          "coding": [
                                                              {
                                                                  "system": "http://loinc.org",
                                                                  "code": "69547-8",
                                                                  "display": "Genomic Ref allele [ID]"
                                                              }
                                                          ]
                                                      }
                                                  ],
                                                  "required": [
                                                      "coding"
                                                  ],
                                                  "additionalProperties": true,
                                                  "properties": {
                                                      "coding": {
                                                          "$id": "#/properties/contained/items/anyOf/1/properties/component/items/anyOf/1/properties/code/properties/coding",
                                                          "type": "array",
                                                          "title": "The coding schema",
                                                          "description": "An explanation about the purpose of this instance.",
                                                          "default": [],
                                                          "examples": [
                                                              [
                                                                  {
                                                                      "system": "http://loinc.org",
                                                                      "code": "69547-8",
                                                                      "display": "Genomic Ref allele [ID]"
                                                                  }
                                                              ]
                                                          ],
                                                          "additionalItems": true,
                                                          "items": {
                                                              "anyOf": [
                                                                  {
                                                                      "$id": "#/properties/contained/items/anyOf/1/properties/component/items/anyOf/1/properties/code/properties/coding/items/anyOf/0",
                                                                      "type": "object",
                                                                      "title": "The first anyOf schema",
                                                                      "description": "An explanation about the purpose of this instance.",
                                                                      "default": {},
                                                                      "examples": [
                                                                          {
                                                                              "system": "http://loinc.org",
                                                                              "code": "69547-8",
                                                                              "display": "Genomic Ref allele [ID]"
                                                                          }
                                                                      ],
                                                                      "required": [
                                                                          "system",
                                                                          "code",
                                                                          "display"
                                                                      ],
                                                                      "additionalProperties": true,
                                                                      "properties": {
                                                                          "system": {
                                                                              "$id": "#/properties/contained/items/anyOf/1/properties/component/items/anyOf/1/properties/code/properties/coding/items/anyOf/0/properties/system",
                                                                              "type": "string",
                                                                              "title": "The system schema",
                                                                              "description": "An explanation about the purpose of this instance.",
                                                                              "default": "",
                                                                              "examples": [
                                                                                  "http://loinc.org"
                                                                              ]
                                                                          },
                                                                          "code": {
                                                                              "$id": "#/properties/contained/items/anyOf/1/properties/component/items/anyOf/1/properties/code/properties/coding/items/anyOf/0/properties/code",
                                                                              "type": "string",
                                                                              "title": "The code schema",
                                                                              "description": "An explanation about the purpose of this instance.",
                                                                              "default": "",
                                                                              "examples": [
                                                                                  "69547-8"
                                                                              ]
                                                                          },
                                                                          "display": {
                                                                              "$id": "#/properties/contained/items/anyOf/1/properties/component/items/anyOf/1/properties/code/properties/coding/items/anyOf/0/properties/display",
                                                                              "type": "string",
                                                                              "title": "The display schema",
                                                                              "description": "An explanation about the purpose of this instance.",
                                                                              "default": "",
                                                                              "examples": [
                                                                                  "Genomic Ref allele [ID]"
                                                                              ]
                                                                          }
                                                                      }
                                                                  }
                                                              ],
                                                              "$id": "#/properties/contained/items/anyOf/1/properties/component/items/anyOf/1/properties/code/properties/coding/items"
                                                          }
                                                      }
                                                  }
                                              },
                                              "valueString": {
                                                  "$id": "#/properties/contained/items/anyOf/1/properties/component/items/anyOf/1/properties/valueString",
                                                  "type": "string",
                                                  "title": "The valueString schema",
                                                  "description": "An explanation about the purpose of this instance.",
                                                  "default": "",
                                                  "examples": [
                                                      "."
                                                  ]
                                              }
                                          }
                                      },
                                      {
                                          "$id": "#/properties/contained/items/anyOf/1/properties/component/items/anyOf/2",
                                          "type": "object",
                                          "title": "The third anyOf schema",
                                          "description": "An explanation about the purpose of this instance.",
                                          "default": {},
                                          "examples": [
                                              {
                                                  "code": {
                                                      "coding": [
                                                          {
                                                              "system": "http://hl7.org/fhir/uv/genomics-reporting/CodeSystem/tbd-codes",
                                                              "code": "exact-start-end",
                                                              "display": "Variant exact start and end"
                                                          }
                                                      ]
                                                  },
                                                  "valueRange": {
                                                      "low": {
                                                          "value": 15
                                                      }
                                                  }
                                              }
                                          ],
                                          "required": [
                                              "code",
                                              "valueRange"
                                          ],
                                          "additionalProperties": true,
                                          "properties": {
                                              "code": {
                                                  "$id": "#/properties/contained/items/anyOf/1/properties/component/items/anyOf/2/properties/code",
                                                  "type": "object",
                                                  "title": "The code schema",
                                                  "description": "An explanation about the purpose of this instance.",
                                                  "default": {},
                                                  "examples": [
                                                      {
                                                          "coding": [
                                                              {
                                                                  "system": "http://hl7.org/fhir/uv/genomics-reporting/CodeSystem/tbd-codes",
                                                                  "code": "exact-start-end",
                                                                  "display": "Variant exact start and end"
                                                              }
                                                          ]
                                                      }
                                                  ],
                                                  "required": [
                                                      "coding"
                                                  ],
                                                  "additionalProperties": true,
                                                  "properties": {
                                                      "coding": {
                                                          "$id": "#/properties/contained/items/anyOf/1/properties/component/items/anyOf/2/properties/code/properties/coding",
                                                          "type": "array",
                                                          "title": "The coding schema",
                                                          "description": "An explanation about the purpose of this instance.",
                                                          "default": [],
                                                          "examples": [
                                                              [
                                                                  {
                                                                      "system": "http://hl7.org/fhir/uv/genomics-reporting/CodeSystem/tbd-codes",
                                                                      "code": "exact-start-end",
                                                                      "display": "Variant exact start and end"
                                                                  }
                                                              ]
                                                          ],
                                                          "additionalItems": true,
                                                          "items": {
                                                              "anyOf": [
                                                                  {
                                                                      "$id": "#/properties/contained/items/anyOf/1/properties/component/items/anyOf/2/properties/code/properties/coding/items/anyOf/0",
                                                                      "type": "object",
                                                                      "title": "The first anyOf schema",
                                                                      "description": "An explanation about the purpose of this instance.",
                                                                      "default": {},
                                                                      "examples": [
                                                                          {
                                                                              "system": "http://hl7.org/fhir/uv/genomics-reporting/CodeSystem/tbd-codes",
                                                                              "code": "exact-start-end",
                                                                              "display": "Variant exact start and end"
                                                                          }
                                                                      ],
                                                                      "required": [
                                                                          "system",
                                                                          "code",
                                                                          "display"
                                                                      ],
                                                                      "additionalProperties": true,
                                                                      "properties": {
                                                                          "system": {
                                                                              "$id": "#/properties/contained/items/anyOf/1/properties/component/items/anyOf/2/properties/code/properties/coding/items/anyOf/0/properties/system",
                                                                              "type": "string",
                                                                              "title": "The system schema",
                                                                              "description": "An explanation about the purpose of this instance.",
                                                                              "default": "",
                                                                              "examples": [
                                                                                  "http://hl7.org/fhir/uv/genomics-reporting/CodeSystem/tbd-codes"
                                                                              ]
                                                                          },
                                                                          "code": {
                                                                              "$id": "#/properties/contained/items/anyOf/1/properties/component/items/anyOf/2/properties/code/properties/coding/items/anyOf/0/properties/code",
                                                                              "type": "string",
                                                                              "title": "The code schema",
                                                                              "description": "An explanation about the purpose of this instance.",
                                                                              "default": "",
                                                                              "examples": [
                                                                                  "exact-start-end"
                                                                              ]
                                                                          },
                                                                          "display": {
                                                                              "$id": "#/properties/contained/items/anyOf/1/properties/component/items/anyOf/2/properties/code/properties/coding/items/anyOf/0/properties/display",
                                                                              "type": "string",
                                                                              "title": "The display schema",
                                                                              "description": "An explanation about the purpose of this instance.",
                                                                              "default": "",
                                                                              "examples": [
                                                                                  "Variant exact start and end"
                                                                              ]
                                                                          }
                                                                      }
                                                                  }
                                                              ],
                                                              "$id": "#/properties/contained/items/anyOf/1/properties/component/items/anyOf/2/properties/code/properties/coding/items"
                                                          }
                                                      }
                                                  }
                                              },
                                              "valueRange": {
                                                  "$id": "#/properties/contained/items/anyOf/1/properties/component/items/anyOf/2/properties/valueRange",
                                                  "type": "object",
                                                  "title": "The valueRange schema",
                                                  "description": "An explanation about the purpose of this instance.",
                                                  "default": {},
                                                  "examples": [
                                                      {
                                                          "low": {
                                                              "value": 15
                                                          }
                                                      }
                                                  ],
                                                  "required": [
                                                      "low"
                                                  ],
                                                  "additionalProperties": true,
                                                  "properties": {
                                                      "low": {
                                                          "$id": "#/properties/contained/items/anyOf/1/properties/component/items/anyOf/2/properties/valueRange/properties/low",
                                                          "type": "object",
                                                          "title": "The low schema",
                                                          "description": "An explanation about the purpose of this instance.",
                                                          "default": {},
                                                          "examples": [
                                                              {
                                                                  "value": 15
                                                              }
                                                          ],
                                                          "required": [
                                                              "value"
                                                          ],
                                                          "additionalProperties": true,
                                                          "properties": {
                                                              "value": {
                                                                  "$id": "#/properties/contained/items/anyOf/1/properties/component/items/anyOf/2/properties/valueRange/properties/low/properties/value",
                                                                  "type": "integer",
                                                                  "title": "The value schema",
                                                                  "description": "An explanation about the purpose of this instance.",
                                                                  "default": 0,
                                                                  "examples": [
                                                                      15
                                                                  ]
                                                              }
                                                          }
                                                      }
                                                  }
                                              }
                                          }
                                      }
                                  ],
                                  "$id": "#/properties/contained/items/anyOf/1/properties/component/items"
                              }
                          }
                      }
                  },
                  {
                      "$id": "#/properties/contained/items/anyOf/2",
                      "type": "object",
                      "title": "The third anyOf schema",
                      "description": "An explanation about the purpose of this instance.",
                      "default": {},
                      "examples": [
                          {
                              "resourceType": "Observation",
                              "id": "sid-d8fb891258544",
                              "meta": {
                                  "profile": [
                                      "http://hl7.org/fhir/uv/genomics-reporting/StructureDefinition/sequence-phase-relationship"
                                  ]
                              },
                              "status": "final",
                              "category": [
                                  {
                                      "coding": [
                                          {
                                              "system": "http://terminology.hl7.org/CodeSystem/observation-category",
                                              "code": "laboratory"
                                          }
                                      ]
                                  }
                              ],
                              "code": {
                                  "coding": [
                                      {
                                          "system": "http://loinc.org",
                                          "code": "82120-7",
                                          "display": "Allelic phase"
                                      }
                                  ]
                              },
                              "subject": {
                                  "reference": "Patient/HG00628"
                              },
                              "valueCodeableConcept": {
                                  "coding": [
                                      {
                                          "system": "http://hl7.org/fhir/uv/genomics-reporting/CodeSystem/seq-phase-relationship",
                                          "code": "Trans",
                                          "display": "Trans"
                                      }
                                  ]
                              },
                              "derivedFrom": [
                                  {
                                      "reference": "#dv-0b2eaeca3e5e4"
                                  },
                                  {
                                      "reference": "#dv-042596d5b11b4"
                                  }
                              ]
                          }
                      ],
                      "required": [
                          "resourceType",
                          "id",
                          "meta",
                          "status",
                          "category",
                          "code",
                          "subject",
                          "valueCodeableConcept",
                          "derivedFrom"
                      ],
                      "additionalProperties": true,
                      "properties": {
                          "resourceType": {
                              "$id": "#/properties/contained/items/anyOf/2/properties/resourceType",
                              "type": "string",
                              "title": "The resourceType schema",
                              "description": "An explanation about the purpose of this instance.",
                              "default": "",
                              "examples": [
                                  "Observation"
                              ]
                          },
                          "id": {
                              "$id": "#/properties/contained/items/anyOf/2/properties/id",
                              "type": "string",
                              "title": "The id schema",
                              "description": "An explanation about the purpose of this instance.",
                              "default": "",
                              "examples": [
                                  "sid-d8fb891258544"
                              ]
                          },
                          "meta": {
                              "$id": "#/properties/contained/items/anyOf/2/properties/meta",
                              "type": "object",
                              "title": "The meta schema",
                              "description": "An explanation about the purpose of this instance.",
                              "default": {},
                              "examples": [
                                  {
                                      "profile": [
                                          "http://hl7.org/fhir/uv/genomics-reporting/StructureDefinition/sequence-phase-relationship"
                                      ]
                                  }
                              ],
                              "required": [
                                  "profile"
                              ],
                              "additionalProperties": true,
                              "properties": {
                                  "profile": {
                                      "$id": "#/properties/contained/items/anyOf/2/properties/meta/properties/profile",
                                      "type": "array",
                                      "title": "The profile schema",
                                      "description": "An explanation about the purpose of this instance.",
                                      "default": [],
                                      "examples": [
                                          [
                                              "http://hl7.org/fhir/uv/genomics-reporting/StructureDefinition/sequence-phase-relationship"
                                          ]
                                      ],
                                      "additionalItems": true,
                                      "items": {
                                          "anyOf": [
                                              {
                                                  "$id": "#/properties/contained/items/anyOf/2/properties/meta/properties/profile/items/anyOf/0",
                                                  "type": "string",
                                                  "title": "The first anyOf schema",
                                                  "description": "An explanation about the purpose of this instance.",
                                                  "default": "",
                                                  "examples": [
                                                      "http://hl7.org/fhir/uv/genomics-reporting/StructureDefinition/sequence-phase-relationship"
                                                  ]
                                              }
                                          ],
                                          "$id": "#/properties/contained/items/anyOf/2/properties/meta/properties/profile/items"
                                      }
                                  }
                              }
                          },
                          "status": {
                              "$id": "#/properties/contained/items/anyOf/2/properties/status",
                              "type": "string",
                              "title": "The status schema",
                              "description": "An explanation about the purpose of this instance.",
                              "default": "",
                              "examples": [
                                  "final"
                              ]
                          },
                          "category": {
                              "$id": "#/properties/contained/items/anyOf/2/properties/category",
                              "type": "array",
                              "title": "The category schema",
                              "description": "An explanation about the purpose of this instance.",
                              "default": [],
                              "examples": [
                                  [
                                      {
                                          "coding": [
                                              {
                                                  "system": "http://terminology.hl7.org/CodeSystem/observation-category",
                                                  "code": "laboratory"
                                              }
                                          ]
                                      }
                                  ]
                              ],
                              "additionalItems": true,
                              "items": {
                                  "anyOf": [
                                      {
                                          "$id": "#/properties/contained/items/anyOf/2/properties/category/items/anyOf/0",
                                          "type": "object",
                                          "title": "The first anyOf schema",
                                          "description": "An explanation about the purpose of this instance.",
                                          "default": {},
                                          "examples": [
                                              {
                                                  "coding": [
                                                      {
                                                          "system": "http://terminology.hl7.org/CodeSystem/observation-category",
                                                          "code": "laboratory"
                                                      }
                                                  ]
                                              }
                                          ],
                                          "required": [
                                              "coding"
                                          ],
                                          "additionalProperties": true,
                                          "properties": {
                                              "coding": {
                                                  "$id": "#/properties/contained/items/anyOf/2/properties/category/items/anyOf/0/properties/coding",
                                                  "type": "array",
                                                  "title": "The coding schema",
                                                  "description": "An explanation about the purpose of this instance.",
                                                  "default": [],
                                                  "examples": [
                                                      [
                                                          {
                                                              "system": "http://terminology.hl7.org/CodeSystem/observation-category",
                                                              "code": "laboratory"
                                                          }
                                                      ]
                                                  ],
                                                  "additionalItems": true,
                                                  "items": {
                                                      "anyOf": [
                                                          {
                                                              "$id": "#/properties/contained/items/anyOf/2/properties/category/items/anyOf/0/properties/coding/items/anyOf/0",
                                                              "type": "object",
                                                              "title": "The first anyOf schema",
                                                              "description": "An explanation about the purpose of this instance.",
                                                              "default": {},
                                                              "examples": [
                                                                  {
                                                                      "system": "http://terminology.hl7.org/CodeSystem/observation-category",
                                                                      "code": "laboratory"
                                                                  }
                                                              ],
                                                              "required": [
                                                                  "system",
                                                                  "code"
                                                              ],
                                                              "additionalProperties": true,
                                                              "properties": {
                                                                  "system": {
                                                                      "$id": "#/properties/contained/items/anyOf/2/properties/category/items/anyOf/0/properties/coding/items/anyOf/0/properties/system",
                                                                      "type": "string",
                                                                      "title": "The system schema",
                                                                      "description": "An explanation about the purpose of this instance.",
                                                                      "default": "",
                                                                      "examples": [
                                                                          "http://terminology.hl7.org/CodeSystem/observation-category"
                                                                      ]
                                                                  },
                                                                  "code": {
                                                                      "$id": "#/properties/contained/items/anyOf/2/properties/category/items/anyOf/0/properties/coding/items/anyOf/0/properties/code",
                                                                      "type": "string",
                                                                      "title": "The code schema",
                                                                      "description": "An explanation about the purpose of this instance.",
                                                                      "default": "",
                                                                      "examples": [
                                                                          "laboratory"
                                                                      ]
                                                                  }
                                                              }
                                                          }
                                                      ],
                                                      "$id": "#/properties/contained/items/anyOf/2/properties/category/items/anyOf/0/properties/coding/items"
                                                  }
                                              }
                                          }
                                      }
                                  ],
                                  "$id": "#/properties/contained/items/anyOf/2/properties/category/items"
                              }
                          },
                          "code": {
                              "$id": "#/properties/contained/items/anyOf/2/properties/code",
                              "type": "object",
                              "title": "The code schema",
                              "description": "An explanation about the purpose of this instance.",
                              "default": {},
                              "examples": [
                                  {
                                      "coding": [
                                          {
                                              "system": "http://loinc.org",
                                              "code": "82120-7",
                                              "display": "Allelic phase"
                                          }
                                      ]
                                  }
                              ],
                              "required": [
                                  "coding"
                              ],
                              "additionalProperties": true,
                              "properties": {
                                  "coding": {
                                      "$id": "#/properties/contained/items/anyOf/2/properties/code/properties/coding",
                                      "type": "array",
                                      "title": "The coding schema",
                                      "description": "An explanation about the purpose of this instance.",
                                      "default": [],
                                      "examples": [
                                          [
                                              {
                                                  "system": "http://loinc.org",
                                                  "code": "82120-7",
                                                  "display": "Allelic phase"
                                              }
                                          ]
                                      ],
                                      "additionalItems": true,
                                      "items": {
                                          "anyOf": [
                                              {
                                                  "$id": "#/properties/contained/items/anyOf/2/properties/code/properties/coding/items/anyOf/0",
                                                  "type": "object",
                                                  "title": "The first anyOf schema",
                                                  "description": "An explanation about the purpose of this instance.",
                                                  "default": {},
                                                  "examples": [
                                                      {
                                                          "system": "http://loinc.org",
                                                          "code": "82120-7",
                                                          "display": "Allelic phase"
                                                      }
                                                  ],
                                                  "required": [
                                                      "system",
                                                      "code",
                                                      "display"
                                                  ],
                                                  "additionalProperties": true,
                                                  "properties": {
                                                      "system": {
                                                          "$id": "#/properties/contained/items/anyOf/2/properties/code/properties/coding/items/anyOf/0/properties/system",
                                                          "type": "string",
                                                          "title": "The system schema",
                                                          "description": "An explanation about the purpose of this instance.",
                                                          "default": "",
                                                          "examples": [
                                                              "http://loinc.org"
                                                          ]
                                                      },
                                                      "code": {
                                                          "$id": "#/properties/contained/items/anyOf/2/properties/code/properties/coding/items/anyOf/0/properties/code",
                                                          "type": "string",
                                                          "title": "The code schema",
                                                          "description": "An explanation about the purpose of this instance.",
                                                          "default": "",
                                                          "examples": [
                                                              "82120-7"
                                                          ]
                                                      },
                                                      "display": {
                                                          "$id": "#/properties/contained/items/anyOf/2/properties/code/properties/coding/items/anyOf/0/properties/display",
                                                          "type": "string",
                                                          "title": "The display schema",
                                                          "description": "An explanation about the purpose of this instance.",
                                                          "default": "",
                                                          "examples": [
                                                              "Allelic phase"
                                                          ]
                                                      }
                                                  }
                                              }
                                          ],
                                          "$id": "#/properties/contained/items/anyOf/2/properties/code/properties/coding/items"
                                      }
                                  }
                              }
                          },
                          "subject": {
                              "$id": "#/properties/contained/items/anyOf/2/properties/subject",
                              "type": "object",
                              "title": "The subject schema",
                              "description": "An explanation about the purpose of this instance.",
                              "default": {},
                              "examples": [
                                  {
                                      "reference": "Patient/HG00628"
                                  }
                              ],
                              "required": [
                                  "reference"
                              ],
                              "additionalProperties": true,
                              "properties": {
                                  "reference": {
                                      "$id": "#/properties/contained/items/anyOf/2/properties/subject/properties/reference",
                                      "type": "string",
                                      "title": "The reference schema",
                                      "description": "An explanation about the purpose of this instance.",
                                      "default": "",
                                      "examples": [
                                          "Patient/HG00628"
                                      ]
                                  }
                              }
                          },
                          "valueCodeableConcept": {
                              "$id": "#/properties/contained/items/anyOf/2/properties/valueCodeableConcept",
                              "type": "object",
                              "title": "The valueCodeableConcept schema",
                              "description": "An explanation about the purpose of this instance.",
                              "default": {},
                              "examples": [
                                  {
                                      "coding": [
                                          {
                                              "system": "http://hl7.org/fhir/uv/genomics-reporting/CodeSystem/seq-phase-relationship",
                                              "code": "Trans",
                                              "display": "Trans"
                                          }
                                      ]
                                  }
                              ],
                              "required": [
                                  "coding"
                              ],
                              "additionalProperties": true,
                              "properties": {
                                  "coding": {
                                      "$id": "#/properties/contained/items/anyOf/2/properties/valueCodeableConcept/properties/coding",
                                      "type": "array",
                                      "title": "The coding schema",
                                      "description": "An explanation about the purpose of this instance.",
                                      "default": [],
                                      "examples": [
                                          [
                                              {
                                                  "system": "http://hl7.org/fhir/uv/genomics-reporting/CodeSystem/seq-phase-relationship",
                                                  "code": "Trans",
                                                  "display": "Trans"
                                              }
                                          ]
                                      ],
                                      "additionalItems": true,
                                      "items": {
                                          "anyOf": [
                                              {
                                                  "$id": "#/properties/contained/items/anyOf/2/properties/valueCodeableConcept/properties/coding/items/anyOf/0",
                                                  "type": "object",
                                                  "title": "The first anyOf schema",
                                                  "description": "An explanation about the purpose of this instance.",
                                                  "default": {},
                                                  "examples": [
                                                      {
                                                          "system": "http://hl7.org/fhir/uv/genomics-reporting/CodeSystem/seq-phase-relationship",
                                                          "code": "Trans",
                                                          "display": "Trans"
                                                      }
                                                  ],
                                                  "required": [
                                                      "system",
                                                      "code",
                                                      "display"
                                                  ],
                                                  "additionalProperties": true,
                                                  "properties": {
                                                      "system": {
                                                          "$id": "#/properties/contained/items/anyOf/2/properties/valueCodeableConcept/properties/coding/items/anyOf/0/properties/system",
                                                          "type": "string",
                                                          "title": "The system schema",
                                                          "description": "An explanation about the purpose of this instance.",
                                                          "default": "",
                                                          "examples": [
                                                              "http://hl7.org/fhir/uv/genomics-reporting/CodeSystem/seq-phase-relationship"
                                                          ]
                                                      },
                                                      "code": {
                                                          "$id": "#/properties/contained/items/anyOf/2/properties/valueCodeableConcept/properties/coding/items/anyOf/0/properties/code",
                                                          "type": "string",
                                                          "title": "The code schema",
                                                          "description": "An explanation about the purpose of this instance.",
                                                          "default": "",
                                                          "examples": [
                                                              "Trans"
                                                          ]
                                                      },
                                                      "display": {
                                                          "$id": "#/properties/contained/items/anyOf/2/properties/valueCodeableConcept/properties/coding/items/anyOf/0/properties/display",
                                                          "type": "string",
                                                          "title": "The display schema",
                                                          "description": "An explanation about the purpose of this instance.",
                                                          "default": "",
                                                          "examples": [
                                                              "Trans"
                                                          ]
                                                      }
                                                  }
                                              }
                                          ],
                                          "$id": "#/properties/contained/items/anyOf/2/properties/valueCodeableConcept/properties/coding/items"
                                      }
                                  }
                              }
                          },
                          "derivedFrom": {
                              "$id": "#/properties/contained/items/anyOf/2/properties/derivedFrom",
                              "type": "array",
                              "title": "The derivedFrom schema",
                              "description": "An explanation about the purpose of this instance.",
                              "default": [],
                              "examples": [
                                  [
                                      {
                                          "reference": "#dv-0b2eaeca3e5e4"
                                      },
                                      {
                                          "reference": "#dv-042596d5b11b4"
                                      }
                                  ]
                              ],
                              "additionalItems": true,
                              "items": {
                                  "anyOf": [
                                      {
                                          "$id": "#/properties/contained/items/anyOf/2/properties/derivedFrom/items/anyOf/0",
                                          "type": "object",
                                          "title": "The first anyOf schema",
                                          "description": "An explanation about the purpose of this instance.",
                                          "default": {},
                                          "examples": [
                                              {
                                                  "reference": "#dv-0b2eaeca3e5e4"
                                              }
                                          ],
                                          "required": [
                                              "reference"
                                          ],
                                          "additionalProperties": true,
                                          "properties": {
                                              "reference": {
                                                  "$id": "#/properties/contained/items/anyOf/2/properties/derivedFrom/items/anyOf/0/properties/reference",
                                                  "type": "string",
                                                  "title": "The reference schema",
                                                  "description": "An explanation about the purpose of this instance.",
                                                  "default": "",
                                                  "examples": [
                                                      "#dv-0b2eaeca3e5e4"
                                                  ]
                                              }
                                          }
                                      }
                                  ],
                                  "$id": "#/properties/contained/items/anyOf/2/properties/derivedFrom/items"
                              }
                          }
                      }
                  }
              ],
              "$id": "#/properties/contained/items"
          }
      },
      "status": {
          "$id": "#/properties/status",
          "type": "string",
          "title": "The status schema",
          "description": "An explanation about the purpose of this instance.",
          "default": "",
          "examples": [
              "final"
          ]
      },
      "code": {
          "$id": "#/properties/code",
          "type": "object",
          "title": "The code schema",
          "description": "An explanation about the purpose of this instance.",
          "default": {},
          "examples": [
              {
                  "coding": [
                      {
                          "system": "http://loinc.org",
                          "code": "81247-9",
                          "display": "Master HL7 genetic variant reporting panel"
                      }
                  ]
              }
          ],
          "required": [
              "coding"
          ],
          "additionalProperties": true,
          "properties": {
              "coding": {
                  "$id": "#/properties/code/properties/coding",
                  "type": "array",
                  "title": "The coding schema",
                  "description": "An explanation about the purpose of this instance.",
                  "default": [],
                  "examples": [
                      [
                          {
                              "system": "http://loinc.org",
                              "code": "81247-9",
                              "display": "Master HL7 genetic variant reporting panel"
                          }
                      ]
                  ],
                  "additionalItems": true,
                  "items": {
                      "anyOf": [
                          {
                              "$id": "#/properties/code/properties/coding/items/anyOf/0",
                              "type": "object",
                              "title": "The first anyOf schema",
                              "description": "An explanation about the purpose of this instance.",
                              "default": {},
                              "examples": [
                                  {
                                      "system": "http://loinc.org",
                                      "code": "81247-9",
                                      "display": "Master HL7 genetic variant reporting panel"
                                  }
                              ],
                              "required": [
                                  "system",
                                  "code",
                                  "display"
                              ],
                              "additionalProperties": true,
                              "properties": {
                                  "system": {
                                      "$id": "#/properties/code/properties/coding/items/anyOf/0/properties/system",
                                      "type": "string",
                                      "title": "The system schema",
                                      "description": "An explanation about the purpose of this instance.",
                                      "default": "",
                                      "examples": [
                                          "http://loinc.org"
                                      ]
                                  },
                                  "code": {
                                      "$id": "#/properties/code/properties/coding/items/anyOf/0/properties/code",
                                      "type": "string",
                                      "title": "The code schema",
                                      "description": "An explanation about the purpose of this instance.",
                                      "default": "",
                                      "examples": [
                                          "81247-9"
                                      ]
                                  },
                                  "display": {
                                      "$id": "#/properties/code/properties/coding/items/anyOf/0/properties/display",
                                      "type": "string",
                                      "title": "The display schema",
                                      "description": "An explanation about the purpose of this instance.",
                                      "default": "",
                                      "examples": [
                                          "Master HL7 genetic variant reporting panel"
                                      ]
                                  }
                              }
                          }
                      ],
                      "$id": "#/properties/code/properties/coding/items"
                  }
              }
          }
      },
      "subject": {
          "$id": "#/properties/subject",
          "type": "object",
          "title": "The subject schema",
          "description": "An explanation about the purpose of this instance.",
          "default": {},
          "examples": [
              {
                  "reference": "Patient/HG00628"
              }
          ],
          "required": [
              "reference"
          ],
          "additionalProperties": true,
          "properties": {
              "reference": {
                  "$id": "#/properties/subject/properties/reference",
                  "type": "string",
                  "title": "The reference schema",
                  "description": "An explanation about the purpose of this instance.",
                  "default": "",
                  "examples": [
                      "Patient/HG00628"
                  ]
              }
          }
      },
      "issued": {
          "$id": "#/properties/issued",
          "type": "string",
          "title": "The issued schema",
          "description": "An explanation about the purpose of this instance.",
          "default": "",
          "examples": [
              "2020-06-16T07:01:03+00:00"
          ]
      },
      "result": {
          "$id": "#/properties/result",
          "type": "array",
          "title": "The result schema",
          "description": "An explanation about the purpose of this instance.",
          "default": [],
          "examples": [
              [
                  {
                      "reference": "#rs-cd4ce5bf17ba4"
                  },
                  {
                      "reference": "#dv-0450547ed8a64"
                  }
              ]
          ],
          "additionalItems": true,
          "items": {
              "anyOf": [
                  {
                      "$id": "#/properties/result/items/anyOf/0",
                      "type": "object",
                      "title": "The first anyOf schema",
                      "description": "An explanation about the purpose of this instance.",
                      "default": {},
                      "examples": [
                          {
                              "reference": "#rs-cd4ce5bf17ba4"
                          }
                      ],
                      "required": [
                          "reference"
                      ],
                      "additionalProperties": true,
                      "properties": {
                          "reference": {
                              "$id": "#/properties/result/items/anyOf/0/properties/reference",
                              "type": "string",
                              "title": "The reference schema",
                              "description": "An explanation about the purpose of this instance.",
                              "default": "",
                              "examples": [
                                  "#rs-cd4ce5bf17ba4"
                              ]
                          }
                      }
                  }
              ],
              "$id": "#/properties/result/items"
          }
      }
  }
}